subject,trial_number,n_block,catch,hand,mot,val,stim_name,run_number,num_block,ran,order,response,time_of_response,subject_number,left_side_resp_label,trial_onset,blk_instr_onset,baseline_onset,response_hand,response_cleaned,response_lat,response_lat_cleaned,response_meaning,response_meaning_cleaned,condition_mot,condition_val,condition,correct,correct_cleaned,rt
sub-103,1,0,TRUE,right,approach,pos,cake29_crop.jpg,1,1,TRUE,0,1,1424.504,103,DON'T EAT                                    EAT,1422.9138,1418.8939,1404.9093,left,1,left,left,not_eat,not_eat,avoid,pos,avoid-pos,0,0,1590.1999999999534
sub-103,2,0,FALSE,right,avoid,pos,meat5_crop.jpg,1,1,TRUE,1,1,1426.095,103,DON'T EAT                                    EAT,1424.9321,1418.8939,1404.9093,left,1,left,left,not_eat,not_eat,avoid,pos,avoid-pos,1,1,1162.8999999999069
sub-103,3,0,FALSE,right,avoid,pos,meat14_crop.jpg,1,1,TRUE,2,--,NA,103,DON'T EAT                                    EAT,1426.9504,1418.8939,1404.9093,left,--,NA,NA,no_response,no_response,avoid,pos,avoid-pos,NA,NA,NA
sub-103,4,0,FALSE,right,avoid,pos,meat34_crop.jpg,1,1,TRUE,3,1,1429.6952000000001,103,DON'T EAT                                    EAT,1428.9717,1418.8939,1404.9093,left,1,left,left,not_eat,not_eat,avoid,pos,avoid-pos,1,1,723.5000000002328
sub-103,5,0,FALSE,right,avoid,pos,meat17_crop.jpg,1,1,TRUE,4,1,1431.8557,103,DON'T EAT                                    EAT,1430.9891,1418.8939,1404.9093,left,1,left,left,not_eat,not_eat,avoid,pos,avoid-pos,1,1,866.6000000000931
sub-103,6,0,TRUE,right,approach,neg,insect38_crop.jpg,1,1,TRUE,5,2,1433.9163,103,DON'T EAT                                    EAT,1433.0055,1418.8939,1404.9093,left,2,right,right,eat,eat,avoid,pos,avoid-pos,1,1,910.8000000000466
sub-103,7,0,FALSE,right,avoid,pos,meat4_crop.jpg,1,1,TRUE,6,1,1436.2855,103,DON'T EAT                                    EAT,1435.0238,1418.8939,1404.9093,left,1,left,left,not_eat,not_eat,avoid,pos,avoid-pos,1,1,1261.6999999999534
sub-103,8,0,FALSE,right,avoid,pos,meat33_crop.jpg,1,1,TRUE,7,1,1438.611,103,DON'T EAT                                    EAT,1437.0422,1418.8939,1404.9093,left,1,left,left,not_eat,not_eat,avoid,pos,avoid-pos,1,1,1568.7999999998137
sub-103,9,0,FALSE,right,avoid,pos,meat15_crop.jpg,1,1,TRUE,8,1,1440.333,103,DON'T EAT                                    EAT,1439.0605,1418.8939,1404.9093,left,1,left,left,not_eat,not_eat,avoid,pos,avoid-pos,1,1,1272.5
sub-103,10,0,FALSE,right,avoid,pos,meat22_crop.jpg,1,1,TRUE,9,1,1442.0107,103,DON'T EAT                                    EAT,1441.0789,1418.8939,1404.9093,left,1,left,left,not_eat,not_eat,avoid,pos,avoid-pos,1,1,931.8000000000466
sub-103,11,0,FALSE,right,approach,pos,cake36_crop.jpg,1,2,TRUE,10,--,NA,103,DON'T EAT                                    EAT,1458.3431,1454.3232,1404.9093,left,--,NA,NA,no_response,no_response,approach,pos,approach-pos,NA,NA,NA
sub-103,12,0,FALSE,right,approach,pos,cake4_crop.jpg,1,2,TRUE,11,2,1460.6241,103,DON'T EAT                                    EAT,1460.3615,1454.3232,1404.9093,left,2,right,right,eat,eat,approach,pos,approach-pos,1,1,262.60000000009313
sub-103,13,0,FALSE,right,approach,pos,cake12_crop.jpg,1,2,TRUE,12,2,1463.3453,103,DON'T EAT                                    EAT,1462.3799,1454.3232,1404.9093,left,2,right,right,eat,eat,approach,pos,approach-pos,1,1,965.4000000001397
sub-103,14,0,FALSE,right,approach,pos,cake26_crop.jpg,1,2,TRUE,13,2,1465.177,103,DON'T EAT                                    EAT,1464.3982,1454.3232,1404.9093,left,2,right,right,eat,eat,approach,pos,approach-pos,1,1,778.7999999998137
sub-103,15,0,FALSE,right,approach,pos,cake31_crop.jpg,1,2,TRUE,14,2,1466.9873,103,DON'T EAT                                    EAT,1466.4166,1454.3232,1404.9093,left,2,right,right,eat,eat,approach,pos,approach-pos,1,1,570.6999999999534
sub-103,16,0,FALSE,right,approach,pos,cake8_crop.jpg,1,2,TRUE,15,2,1469.0496,103,DON'T EAT                                    EAT,1468.4349,1454.3232,1404.9093,left,2,right,right,eat,eat,approach,pos,approach-pos,1,1,614.7000000001863
sub-103,17,0,TRUE,right,avoid,neg,fungus14_crop.jpg,1,2,TRUE,16,1,1471.4298,103,DON'T EAT                                    EAT,1470.4532,1454.3232,1404.9093,left,1,left,left,not_eat,not_eat,approach,pos,approach-pos,1,1,976.5999999998603
sub-103,18,0,FALSE,right,approach,pos,cake10_crop.jpg,1,2,TRUE,17,2,1473.404,103,DON'T EAT                                    EAT,1472.4716,1454.3232,1404.9093,left,2,right,right,eat,eat,approach,pos,approach-pos,1,1,932.3999999999069
sub-103,19,0,TRUE,right,avoid,pos,meat7_crop.jpg,1,2,TRUE,18,1,1475.9819,103,DON'T EAT                                    EAT,1474.49,1454.3232,1404.9093,left,1,left,left,not_eat,not_eat,approach,pos,approach-pos,1,1,1491.8999999999069
sub-103,20,0,FALSE,right,approach,pos,cake21_crop.jpg,1,2,TRUE,19,2,1477.5504,103,DON'T EAT                                    EAT,1476.5083,1454.3232,1404.9093,left,2,right,right,eat,eat,approach,pos,approach-pos,1,1,1042.1000000000931
sub-103,21,1,FALSE,left,avoid,neg,fungus7_crop.jpg,1,3,TRUE,20,1,1497.0236,103,DON'T EAT                                    EAT,1495.6742,1491.6709,1404.9093,left,1,left,left,not_eat,not_eat,avoid,neg,avoid-neg,1,1,1349.4000000001397
sub-103,22,1,FALSE,left,avoid,neg,fungus25_crop.jpg,1,3,TRUE,21,1,1498.5155,103,DON'T EAT                                    EAT,1497.6925,1491.6709,1404.9093,left,1,left,left,not_eat,not_eat,avoid,neg,avoid-neg,1,1,823
sub-103,23,1,FALSE,left,avoid,neg,fungus32_crop.jpg,1,3,TRUE,22,1,1500.7091,103,DON'T EAT                                    EAT,1499.7108,1491.6709,1404.9093,left,1,left,left,not_eat,not_eat,avoid,neg,avoid-neg,1,1,998.3000000000466
sub-103,24,1,TRUE,left,approach,pos,cake17_crop.jpg,1,3,TRUE,23,2,1502.6072,103,DON'T EAT                                    EAT,1501.7292,1491.6709,1404.9093,left,2,right,right,eat,eat,avoid,neg,avoid-neg,1,1,878
sub-103,25,1,FALSE,left,avoid,neg,fungus28_crop.jpg,1,3,TRUE,24,1,1504.6245,103,DON'T EAT                                    EAT,1503.7476,1491.6709,1404.9093,left,1,left,left,not_eat,not_eat,avoid,neg,avoid-neg,1,1,876.9000000001397
sub-103,26,1,FALSE,left,avoid,neg,fungus19_crop.jpg,1,3,TRUE,25,1,1506.5991,103,DON'T EAT                                    EAT,1505.7659,1491.6709,1404.9093,left,1,left,left,not_eat,not_eat,avoid,neg,avoid-neg,1,1,833.1999999997206
sub-103,27,1,FALSE,left,avoid,neg,fungus34_crop.jpg,1,3,TRUE,26,1,1508.563,103,DON'T EAT                                    EAT,1507.7843,1491.6709,1404.9093,left,1,left,left,not_eat,not_eat,avoid,neg,avoid-neg,1,1,778.6999999999534
sub-103,28,1,FALSE,left,avoid,neg,fungus26_crop.jpg,1,3,TRUE,27,1,1510.6255,103,DON'T EAT                                    EAT,1509.8026,1491.6709,1404.9093,left,1,left,left,not_eat,not_eat,avoid,neg,avoid-neg,1,1,822.8999999999069
sub-103,29,1,FALSE,left,avoid,neg,fungus29_crop.jpg,1,3,TRUE,28,1,1512.5334,103,DON'T EAT                                    EAT,1511.8209,1491.6709,1404.9093,left,1,left,left,not_eat,not_eat,avoid,neg,avoid-neg,1,1,712.5000000002328
sub-103,30,1,TRUE,left,approach,neg,insect37_crop.jpg,1,3,TRUE,29,2,1515.068,103,DON'T EAT                                    EAT,1513.8394,1491.6709,1404.9093,left,2,right,right,eat,eat,avoid,neg,avoid-neg,1,1,1228.5999999998603
sub-103,31,2,FALSE,right,avoid,neg,fungus16_crop.jpg,1,4,TRUE,30,1,1532.9198,103,DON'T EAT                                    EAT,1531.1538,1527.1503,1404.9093,left,1,left,left,not_eat,not_eat,avoid,neg,avoid-neg,1,1,1765.9999999997672
sub-103,32,2,TRUE,right,approach,pos,cake34_crop.jpg,1,4,TRUE,31,2,1534.324,103,DON'T EAT                                    EAT,1533.172,1527.1503,1404.9093,left,2,right,right,eat,eat,avoid,neg,avoid-neg,1,1,1152
sub-103,33,2,FALSE,right,avoid,neg,fungus19_crop.jpg,1,4,TRUE,32,1,1536.0344,103,DON'T EAT                                    EAT,1535.1903,1527.1503,1404.9093,left,1,left,left,not_eat,not_eat,avoid,neg,avoid-neg,1,1,844.0999999998603
sub-103,34,2,FALSE,right,avoid,neg,fungus27_crop.jpg,1,4,TRUE,33,1,1538.2509,103,DON'T EAT                                    EAT,1537.2086,1527.1503,1404.9093,left,1,left,left,not_eat,not_eat,avoid,neg,avoid-neg,1,1,1042.3000000000466
sub-103,35,2,FALSE,right,avoid,neg,fungus35_crop.jpg,1,4,TRUE,34,1,1540.1708,103,DON'T EAT                                    EAT,1539.2269,1527.1503,1404.9093,left,1,left,left,not_eat,not_eat,avoid,neg,avoid-neg,1,1,943.9000000001397
sub-103,36,2,TRUE,right,approach,neg,insect29_crop.jpg,1,4,TRUE,35,2,1542.2877,103,DON'T EAT                                    EAT,1541.2454,1527.1503,1404.9093,left,2,right,right,eat,eat,avoid,neg,avoid-neg,1,1,1042.3000000002794
sub-103,37,2,FALSE,right,avoid,neg,fungus2_crop.jpg,1,4,TRUE,36,1,1544.2833,103,DON'T EAT                                    EAT,1543.2637,1527.1503,1404.9093,left,1,left,left,not_eat,not_eat,avoid,neg,avoid-neg,1,1,1019.6000000000931
sub-103,38,2,FALSE,right,avoid,neg,fungus36_crop.jpg,1,4,TRUE,37,1,1547.1305,103,DON'T EAT                                    EAT,1545.2821,1527.1503,1404.9093,left,1,left,left,not_eat,not_eat,avoid,neg,avoid-neg,1,1,1848.4000000001397
sub-103,39,2,FALSE,right,avoid,neg,fungus25_crop.jpg,1,4,TRUE,38,1,1548.2129,103,DON'T EAT                                    EAT,1547.3003,1527.1503,1404.9093,left,1,left,left,not_eat,not_eat,avoid,neg,avoid-neg,1,1,912.5999999998603
sub-103,40,2,FALSE,right,avoid,neg,fungus11_crop.jpg,1,4,TRUE,39,1,1550.7448,103,DON'T EAT                                    EAT,1549.3187,1527.1503,1404.9093,left,1,left,left,not_eat,not_eat,avoid,neg,avoid-neg,1,1,1426.1000000000931
sub-103,41,3,FALSE,right,avoid,pos,meat21_crop.jpg,1,5,TRUE,40,1,1567.5269,103,DON'T EAT                                    EAT,1565.8158,1561.7958,1404.9093,left,1,left,left,not_eat,not_eat,avoid,pos,avoid-pos,1,1,1711.1000000000931
sub-103,42,3,TRUE,right,approach,neg,insect4_crop.jpg,1,5,TRUE,41,2,1568.8765,103,DON'T EAT                                    EAT,1567.8341,1561.7958,1404.9093,left,2,right,right,eat,eat,avoid,pos,avoid-pos,1,1,1042.3999999999069
sub-103,43,3,FALSE,right,avoid,pos,meat38_crop.jpg,1,5,TRUE,42,1,1570.6536,103,DON'T EAT                                    EAT,1569.8524,1561.7958,1404.9093,left,1,left,left,not_eat,not_eat,avoid,pos,avoid-pos,1,1,801.2000000001863
sub-103,44,3,FALSE,right,avoid,pos,meat27_crop.jpg,1,5,TRUE,43,1,1573.0228,103,DON'T EAT                                    EAT,1571.8707,1561.7958,1404.9093,left,1,left,left,not_eat,not_eat,avoid,pos,avoid-pos,1,1,1152.1000000000931
sub-103,45,3,FALSE,right,avoid,pos,meat12_crop.jpg,1,5,TRUE,44,1,1574.8107,103,DON'T EAT                                    EAT,1573.8892,1561.7958,1404.9093,left,1,left,left,not_eat,not_eat,avoid,pos,avoid-pos,1,1,921.4999999997672
sub-103,46,3,FALSE,right,avoid,pos,meat11_crop.jpg,1,5,TRUE,45,1,1576.7413,103,DON'T EAT                                    EAT,1575.9075,1561.7958,1404.9093,left,1,left,left,not_eat,not_eat,avoid,pos,avoid-pos,1,1,833.7999999998137
sub-103,47,3,FALSE,right,avoid,pos,meat37_crop.jpg,1,5,TRUE,46,1,1578.5511,103,DON'T EAT                                    EAT,1577.9258,1561.7958,1404.9093,left,1,left,left,not_eat,not_eat,avoid,pos,avoid-pos,1,1,625.2999999998137
sub-103,48,3,TRUE,right,approach,pos,cake9_crop.jpg,1,5,TRUE,47,2,1580.8876,103,DON'T EAT                                    EAT,1579.9442,1561.7958,1404.9093,left,2,right,right,eat,eat,avoid,pos,avoid-pos,1,1,943.4000000001397
sub-103,49,3,FALSE,right,avoid,pos,meat31_crop.jpg,1,5,TRUE,48,1,1582.6427,103,DON'T EAT                                    EAT,1581.9625,1561.7958,1404.9093,left,1,left,left,not_eat,not_eat,avoid,pos,avoid-pos,1,1,680.2000000001863
sub-103,50,3,FALSE,right,avoid,pos,meat10_crop.jpg,1,5,TRUE,49,1,1584.7262,103,DON'T EAT                                    EAT,1583.9808,1561.7958,1404.9093,left,1,left,left,not_eat,not_eat,avoid,pos,avoid-pos,1,1,745.3999999999069
sub-103,51,1,FALSE,right,approach,pos,cake39_crop.jpg,1,6,TRUE,50,2,1601.3435,103,DON'T EAT                                    EAT,1600.3778,1596.3578,1404.9093,left,2,right,right,eat,eat,approach,pos,approach-pos,1,1,965.6999999999534
sub-103,52,1,FALSE,right,approach,pos,cake27_crop.jpg,1,6,TRUE,51,2,1603.6244,103,DON'T EAT                                    EAT,1602.3961,1596.3578,1404.9093,left,2,right,right,eat,eat,approach,pos,approach-pos,1,1,1228.3000000000466
sub-103,53,1,FALSE,right,approach,pos,cake7_crop.jpg,1,6,TRUE,52,2,1605.4341,103,DON'T EAT                                    EAT,1604.4144,1596.3578,1404.9093,left,2,right,right,eat,eat,approach,pos,approach-pos,1,1,1019.6999999999534
sub-103,54,1,FALSE,right,approach,pos,cake11_crop.jpg,1,6,TRUE,53,2,1607.1233,103,DON'T EAT                                    EAT,1606.4327,1596.3578,1404.9093,left,2,right,right,eat,eat,approach,pos,approach-pos,1,1,690.6000000000931
sub-103,55,1,FALSE,right,approach,pos,cake23_crop.jpg,1,6,TRUE,54,2,1609.1093,103,DON'T EAT                                    EAT,1608.4512,1596.3578,1404.9093,left,2,right,right,eat,eat,approach,pos,approach-pos,1,1,658.1000000000931
sub-103,56,1,FALSE,right,approach,pos,cake1_crop.jpg,1,6,TRUE,55,2,1611.1389,103,DON'T EAT                                    EAT,1610.4695,1596.3578,1404.9093,left,2,right,right,eat,eat,approach,pos,approach-pos,1,1,669.3999999999069
sub-103,57,1,FALSE,right,approach,pos,cake16_crop.jpg,1,6,TRUE,56,2,1613.1023,103,DON'T EAT                                    EAT,1612.4878,1596.3578,1404.9093,left,2,right,right,eat,eat,approach,pos,approach-pos,1,1,614.5
sub-103,58,1,TRUE,right,avoid,neg,fungus7_crop.jpg,1,6,TRUE,57,1,1615.3619,103,DON'T EAT                                    EAT,1614.5062,1596.3578,1404.9093,left,1,left,left,not_eat,not_eat,approach,pos,approach-pos,1,1,855.7000000001863
sub-103,59,1,TRUE,right,avoid,pos,meat39_crop.jpg,1,6,TRUE,58,1,1617.6982,103,DON'T EAT                                    EAT,1616.5245,1596.3578,1404.9093,left,1,left,left,not_eat,not_eat,approach,pos,approach-pos,1,1,1173.6999999999534
sub-103,60,1,FALSE,right,approach,pos,cake6_crop.jpg,1,6,TRUE,59,2,1619.7609,103,DON'T EAT                                    EAT,1618.5428,1596.3578,1404.9093,left,2,right,right,eat,eat,approach,pos,approach-pos,1,1,1218.0999999998603
sub-103,61,3,FALSE,right,approach,pos,cake24_crop.jpg,1,7,TRUE,60,2,1639.1322,103,DON'T EAT                                    EAT,1637.959,1633.939,1404.9093,left,2,right,right,eat,eat,approach,pos,approach-pos,1,1,1173.1999999999534
sub-103,62,3,FALSE,right,approach,pos,cake13_crop.jpg,1,7,TRUE,61,2,1640.6575,103,DON'T EAT                                    EAT,1639.9773,1633.939,1404.9093,left,2,right,right,eat,eat,approach,pos,approach-pos,1,1,680.1999999999534
sub-103,63,3,FALSE,right,approach,pos,cake20_crop.jpg,1,7,TRUE,62,2,1642.6757,103,DON'T EAT                                    EAT,1641.9957,1633.939,1404.9093,left,2,right,right,eat,eat,approach,pos,approach-pos,1,1,680
sub-103,64,3,FALSE,right,approach,pos,cake5_crop.jpg,1,7,TRUE,63,2,1644.7382,103,DON'T EAT                                    EAT,1644.014,1633.939,1404.9093,left,2,right,right,eat,eat,approach,pos,approach-pos,1,1,724.1999999999534
sub-103,65,3,TRUE,right,avoid,pos,meat16_crop.jpg,1,7,TRUE,64,--,NA,103,DON'T EAT                                    EAT,1646.0323,1633.939,1404.9093,left,--,NA,NA,no_response,no_response,approach,pos,approach-pos,NA,NA,NA
sub-103,66,3,FALSE,right,approach,pos,cake14_crop.jpg,1,7,TRUE,65,1,1648.3325,103,DON'T EAT                                    EAT,1648.0508,1633.939,1404.9093,left,1,left,left,not_eat,not_eat,approach,pos,approach-pos,0,0,281.69999999995343
sub-103,67,3,FALSE,right,approach,pos,cake35_crop.jpg,1,7,TRUE,66,2,1651.0742,103,DON'T EAT                                    EAT,1650.0691,1633.939,1404.9093,left,2,right,right,eat,eat,approach,pos,approach-pos,1,1,1005.1000000000931
sub-103,68,3,FALSE,right,approach,pos,cake18_crop.jpg,1,7,TRUE,67,2,1652.8995,103,DON'T EAT                                    EAT,1652.0874,1633.939,1404.9093,left,2,right,right,eat,eat,approach,pos,approach-pos,1,1,812.1000000000931
sub-103,69,3,FALSE,right,approach,pos,cake22_crop.jpg,1,7,TRUE,68,2,1654.6757,103,DON'T EAT                                    EAT,1654.1057,1633.939,1404.9093,left,2,right,right,eat,eat,approach,pos,approach-pos,1,1,569.9999999997672
sub-103,70,3,TRUE,right,avoid,neg,fungus10_crop.jpg,1,7,TRUE,69,1,1656.8921,103,DON'T EAT                                    EAT,1656.124,1633.939,1404.9093,left,1,left,left,not_eat,not_eat,approach,pos,approach-pos,1,1,768.1000000000931
sub-103,71,1,FALSE,left,approach,neg,insect23_crop.jpg,1,8,TRUE,70,2,1674.5385,103,DON'T EAT                                    EAT,1672.8713,1668.8513,1404.9093,left,2,right,right,eat,eat,approach,neg,approach-neg,1,1,1667.1999999999534
sub-103,72,1,FALSE,left,approach,neg,insect39_crop.jpg,1,8,TRUE,71,2,1675.7672,103,DON'T EAT                                    EAT,1674.8896,1668.8513,1404.9093,left,2,right,right,eat,eat,approach,neg,approach-neg,1,1,877.6000000000931
sub-103,73,1,FALSE,left,approach,neg,insect28_crop.jpg,1,8,TRUE,72,2,1677.6759,103,DON'T EAT                                    EAT,1676.908,1668.8513,1404.9093,left,2,right,right,eat,eat,approach,neg,approach-neg,1,1,767.8999999999069
sub-103,74,1,TRUE,left,avoid,pos,meat6_crop.jpg,1,8,TRUE,73,1,1680.8982,103,DON'T EAT                                    EAT,1678.9264,1668.8513,1404.9093,left,1,left,left,not_eat,not_eat,approach,neg,approach-neg,1,1,1971.8000000000466
sub-103,75,1,TRUE,left,avoid,neg,fungus37_crop.jpg,1,8,TRUE,74,1,1682.053,103,DON'T EAT                                    EAT,1680.9447,1668.8513,1404.9093,left,1,left,left,not_eat,not_eat,approach,neg,approach-neg,1,1,1108.3000000000466
sub-103,76,1,FALSE,left,approach,neg,insect17_crop.jpg,1,8,TRUE,75,2,1684.027,103,DON'T EAT                                    EAT,1682.963,1668.8513,1404.9093,left,2,right,right,eat,eat,approach,neg,approach-neg,1,1,1064
sub-103,77,1,FALSE,left,approach,neg,insect24_crop.jpg,1,8,TRUE,76,2,1685.6832,103,DON'T EAT                                    EAT,1684.9813,1668.8513,1404.9093,left,2,right,right,eat,eat,approach,neg,approach-neg,1,1,701.9000000001397
sub-103,78,1,FALSE,left,approach,neg,insect11_crop.jpg,1,8,TRUE,77,2,1687.6799,103,DON'T EAT                                    EAT,1686.9996,1668.8513,1404.9093,left,2,right,right,eat,eat,approach,neg,approach-neg,1,1,680.3000000000466
sub-103,79,1,FALSE,left,approach,neg,insect15_crop.jpg,1,8,TRUE,78,2,1689.7421,103,DON'T EAT                                    EAT,1689.0181,1668.8513,1404.9093,left,2,right,right,eat,eat,approach,neg,approach-neg,1,1,723.9999999997672
sub-103,80,1,FALSE,left,approach,neg,insect6_crop.jpg,1,8,TRUE,79,2,1691.4973,103,DON'T EAT                                    EAT,1691.0364,1668.8513,1404.9093,left,2,right,right,eat,eat,approach,neg,approach-neg,1,1,460.9000000001397
sub-103,81,2,FALSE,left,approach,pos,cake9_crop.jpg,2,9,TRUE,80,2,1809.4215,103,DON'T EAT                                    EAT,1808.0835,1804.0636,1793.9673,right,2,right,right,eat,eat,approach,pos,approach-pos,1,1,1338
sub-103,82,2,FALSE,left,approach,pos,cake18_crop.jpg,2,9,TRUE,81,2,1810.7705,103,DON'T EAT                                    EAT,1810.1019,1804.0636,1793.9673,right,2,right,right,eat,eat,approach,pos,approach-pos,1,1,668.6000000000931
sub-103,83,2,TRUE,left,avoid,neg,fungus16_crop.jpg,2,9,TRUE,82,1,1813.0082,103,DON'T EAT                                    EAT,1812.1202,1804.0636,1793.9673,right,1,left,left,not_eat,not_eat,approach,pos,approach-pos,1,1,888
sub-103,84,2,FALSE,left,approach,pos,cake16_crop.jpg,2,9,TRUE,83,2,1814.9943,103,DON'T EAT                                    EAT,1814.1385,1804.0636,1793.9673,right,2,right,right,eat,eat,approach,pos,approach-pos,1,1,855.8000000000466
sub-103,85,2,FALSE,left,approach,pos,cake20_crop.jpg,2,9,TRUE,84,2,1816.8702,103,DON'T EAT                                    EAT,1816.1569,1804.0636,1793.9673,right,2,right,right,eat,eat,approach,pos,approach-pos,1,1,713.3000000000466
sub-103,86,2,TRUE,left,avoid,pos,meat35_crop.jpg,2,9,TRUE,85,1,1819.5355,103,DON'T EAT                                    EAT,1818.1753,1804.0636,1793.9673,right,1,left,left,not_eat,not_eat,approach,pos,approach-pos,1,1,1360.1999999999534
sub-103,87,2,FALSE,left,approach,pos,cake21_crop.jpg,2,9,TRUE,86,2,1821.0054,103,DON'T EAT                                    EAT,1820.1936,1804.0636,1793.9673,right,2,right,right,eat,eat,approach,pos,approach-pos,1,1,811.7999999998137
sub-103,88,2,FALSE,left,approach,pos,cake5_crop.jpg,2,9,TRUE,87,2,1822.9141,103,DON'T EAT                                    EAT,1822.2119,1804.0636,1793.9673,right,2,right,right,eat,eat,approach,pos,approach-pos,1,1,702.1999999999534
sub-103,89,2,FALSE,left,approach,pos,cake35_crop.jpg,2,9,TRUE,88,2,1824.9427,103,DON'T EAT                                    EAT,1824.2302,1804.0636,1793.9673,right,2,right,right,eat,eat,approach,pos,approach-pos,1,1,712.5
sub-103,90,2,FALSE,left,approach,pos,cake30_crop.jpg,2,9,TRUE,89,2,1827.378,103,DON'T EAT                                    EAT,1826.2487,1804.0636,1793.9673,right,2,right,right,eat,eat,approach,pos,approach-pos,1,1,1129.2999999998137
sub-103,91,0,TRUE,right,avoid,pos,meat36_crop.jpg,2,10,TRUE,90,1,1846.3151,103,DON'T EAT                                    EAT,1844.714,1840.694,1793.9673,right,1,left,left,not_eat,not_eat,approach,neg,approach-neg,1,1,1601.1000000000931
sub-103,92,0,FALSE,right,approach,neg,insect28_crop.jpg,2,10,TRUE,91,2,1847.5334,103,DON'T EAT                                    EAT,1846.7324,1840.694,1793.9673,right,2,right,right,eat,eat,approach,neg,approach-neg,1,1,801
sub-103,93,0,FALSE,right,approach,neg,insect2_crop.jpg,2,10,TRUE,92,2,1850.0016,103,DON'T EAT                                    EAT,1848.7506,1840.694,1793.9673,right,2,right,right,eat,eat,approach,neg,approach-neg,1,1,1251
sub-103,94,0,TRUE,right,avoid,neg,fungus33_crop.jpg,2,10,TRUE,93,1,1851.6248,103,DON'T EAT                                    EAT,1850.769,1840.694,1793.9673,right,1,left,left,not_eat,not_eat,approach,neg,approach-neg,1,1,855.8000000000466
sub-103,95,0,FALSE,right,approach,neg,insect25_crop.jpg,2,10,TRUE,94,2,1853.517,103,DON'T EAT                                    EAT,1852.7874,1840.694,1793.9673,right,2,right,right,eat,eat,approach,neg,approach-neg,1,1,729.6000000000931
sub-103,96,0,FALSE,right,approach,neg,insect36_crop.jpg,2,10,TRUE,95,2,1855.792,103,DON'T EAT                                    EAT,1854.8057,1840.694,1793.9673,right,2,right,right,eat,eat,approach,neg,approach-neg,1,1,986.3000000000466
sub-103,97,0,FALSE,right,approach,neg,insect26_crop.jpg,2,10,TRUE,96,2,1858.0828,103,DON'T EAT                                    EAT,1856.8239,1840.694,1793.9673,right,2,right,right,eat,eat,approach,neg,approach-neg,1,1,1258.899999999674
sub-103,98,0,FALSE,right,approach,neg,insect17_crop.jpg,2,10,TRUE,97,2,1859.5446,103,DON'T EAT                                    EAT,1858.8423,1840.694,1793.9673,right,2,right,right,eat,eat,approach,neg,approach-neg,1,1,702.2999999998137
sub-103,99,0,FALSE,right,approach,neg,insect35_crop.jpg,2,10,TRUE,98,2,1861.6615,103,DON'T EAT                                    EAT,1860.8607,1840.694,1793.9673,right,2,right,right,eat,eat,approach,neg,approach-neg,1,1,800.8000000000466
sub-103,100,0,FALSE,right,approach,neg,insect31_crop.jpg,2,10,TRUE,99,2,1863.9324,103,DON'T EAT                                    EAT,1862.879,1840.694,1793.9673,right,2,right,right,eat,eat,approach,neg,approach-neg,1,1,1053.3999999999069
sub-103,101,3,TRUE,right,avoid,neg,fungus26_crop.jpg,2,11,TRUE,100,1,1883.0754,103,DON'T EAT                                    EAT,1882.0115,1877.9916,1793.9673,right,1,left,left,not_eat,not_eat,approach,neg,approach-neg,1,1,1063.8999999999069
sub-103,102,3,FALSE,right,approach,neg,insect12_crop.jpg,2,11,TRUE,101,2,1885.1927,103,DON'T EAT                                    EAT,1884.0299,1877.9916,1793.9673,right,2,right,right,eat,eat,approach,neg,approach-neg,1,1,1162.8000000000466
sub-103,103,3,FALSE,right,approach,neg,insect20_crop.jpg,2,11,TRUE,102,2,1887.2223,103,DON'T EAT                                    EAT,1886.0482,1877.9916,1793.9673,right,2,right,right,eat,eat,approach,neg,approach-neg,1,1,1174.0999999998603
sub-103,104,3,FALSE,right,approach,neg,insect10_crop.jpg,2,11,TRUE,103,2,1888.9552,103,DON'T EAT                                    EAT,1888.0667,1877.9916,1793.9673,right,2,right,right,eat,eat,approach,neg,approach-neg,1,1,888.5
sub-103,105,3,FALSE,right,approach,neg,insect27_crop.jpg,2,11,TRUE,104,2,1890.732,103,DON'T EAT                                    EAT,1890.085,1877.9916,1793.9673,right,2,right,right,eat,eat,approach,neg,approach-neg,1,1,647
sub-103,106,3,FALSE,right,approach,neg,insect6_crop.jpg,2,11,TRUE,105,2,1893.2224,103,DON'T EAT                                    EAT,1892.1033,1877.9916,1793.9673,right,2,right,right,eat,eat,approach,neg,approach-neg,1,1,1119.1000000000931
sub-103,107,3,FALSE,right,approach,neg,insect22_crop.jpg,2,11,TRUE,106,2,1894.922,103,DON'T EAT                                    EAT,1894.1217,1877.9916,1793.9673,right,2,right,right,eat,eat,approach,neg,approach-neg,1,1,800.3000000000466
sub-103,108,3,FALSE,right,approach,neg,insect1_crop.jpg,2,11,TRUE,107,2,1897.3467,103,DON'T EAT                                    EAT,1896.14,1877.9916,1793.9673,right,2,right,right,eat,eat,approach,neg,approach-neg,1,1,1206.6999999999534
sub-103,109,3,TRUE,right,avoid,pos,meat35_crop.jpg,2,11,TRUE,108,1,1899.0359,103,DON'T EAT                                    EAT,1898.1583,1877.9916,1793.9673,right,1,left,left,not_eat,not_eat,approach,neg,approach-neg,1,1,877.6000000000931
sub-103,110,3,FALSE,right,approach,neg,insect40_crop.jpg,2,11,TRUE,109,2,1901.1971,103,DON'T EAT                                    EAT,1900.1766,1877.9916,1793.9673,right,2,right,right,eat,eat,approach,neg,approach-neg,1,1,1020.5
sub-103,111,0,TRUE,left,avoid,neg,fungus23_crop.jpg,2,12,TRUE,110,1,1921.2534,103,DON'T EAT                                    EAT,1919.9264,1915.9064,1793.9673,right,1,left,left,not_eat,not_eat,approach,neg,approach-neg,1,1,1327
sub-103,112,0,TRUE,left,avoid,pos,meat34_crop.jpg,2,12,TRUE,111,2,1923.8462,103,DON'T EAT                                    EAT,1921.9447,1915.9064,1793.9673,right,2,right,right,eat,eat,approach,neg,approach-neg,0,0,1901.5
sub-103,113,0,FALSE,left,approach,neg,insect26_crop.jpg,2,12,TRUE,112,2,1924.9836,103,DON'T EAT                                    EAT,1923.9631,1915.9064,1793.9673,right,2,right,right,eat,eat,approach,neg,approach-neg,1,1,1020.5000000002328
sub-103,114,0,FALSE,left,approach,neg,insect25_crop.jpg,2,12,TRUE,113,2,1926.5952,103,DON'T EAT                                    EAT,1925.9814,1915.9064,1793.9673,right,2,right,right,eat,eat,approach,neg,approach-neg,1,1,613.8000000000466
sub-103,115,0,FALSE,left,approach,neg,insect3_crop.jpg,2,12,TRUE,114,2,1929.3165,103,DON'T EAT                                    EAT,1927.9998,1915.9064,1793.9673,right,2,right,right,eat,eat,approach,neg,approach-neg,1,1,1316.6999999999534
sub-103,116,0,FALSE,left,approach,neg,insect12_crop.jpg,2,12,TRUE,115,2,1930.5995,103,DON'T EAT                                    EAT,1930.0181,1915.9064,1793.9673,right,2,right,right,eat,eat,approach,neg,approach-neg,1,1,581.3999999999069
sub-103,117,0,FALSE,left,approach,neg,insect20_crop.jpg,2,12,TRUE,116,2,1932.8153,103,DON'T EAT                                    EAT,1932.0364,1915.9064,1793.9673,right,2,right,right,eat,eat,approach,neg,approach-neg,1,1,778.9000000001397
sub-103,118,0,FALSE,left,approach,neg,insect32_crop.jpg,2,12,TRUE,117,2,1934.5703,103,DON'T EAT                                    EAT,1934.0548,1915.9064,1793.9673,right,2,right,right,eat,eat,approach,neg,approach-neg,1,1,515.5000000002328
sub-103,119,0,FALSE,left,approach,neg,insect21_crop.jpg,2,12,TRUE,118,2,1936.8412,103,DON'T EAT                                    EAT,1936.0731,1915.9064,1793.9673,right,2,right,right,eat,eat,approach,neg,approach-neg,1,1,768.1000000000931
sub-103,120,0,FALSE,left,approach,neg,insect4_crop.jpg,2,12,TRUE,119,2,1938.7826,103,DON'T EAT                                    EAT,1938.0916,1915.9064,1793.9673,right,2,right,right,eat,eat,approach,neg,approach-neg,1,1,691.0000000002328
sub-103,121,1,FALSE,right,approach,neg,insect5_crop.jpg,2,13,TRUE,120,2,1958.9043,103,DON'T EAT                                    EAT,1957.9579,1953.9379,1793.9673,right,2,right,right,eat,eat,approach,neg,approach-neg,1,1,946.399999999674
sub-103,122,1,FALSE,right,approach,neg,insect13_crop.jpg,2,13,TRUE,121,2,1960.8649,103,DON'T EAT                                    EAT,1959.9763,1953.9379,1793.9673,right,2,right,right,eat,eat,approach,neg,approach-neg,1,1,888.6000000000931
sub-103,123,1,FALSE,right,approach,neg,insect16_crop.jpg,2,13,TRUE,122,2,1962.5103,103,DON'T EAT                                    EAT,1961.9946,1953.9379,1793.9673,right,2,right,right,eat,eat,approach,neg,approach-neg,1,1,515.6999999997206
sub-103,124,1,TRUE,right,avoid,neg,fungus23_crop.jpg,2,13,TRUE,123,1,1964.8029,103,DON'T EAT                                    EAT,1964.0131,1953.9379,1793.9673,right,1,left,left,not_eat,not_eat,approach,neg,approach-neg,1,1,789.8000000000466
sub-103,125,1,FALSE,right,approach,neg,insect11_crop.jpg,2,13,TRUE,124,2,1966.9308,103,DON'T EAT                                    EAT,1966.0315,1953.9379,1793.9673,right,2,right,right,eat,eat,approach,neg,approach-neg,1,1,899.3000000000466
sub-103,126,1,TRUE,right,avoid,pos,meat6_crop.jpg,2,13,TRUE,125,1,1969.0696,103,DON'T EAT                                    EAT,1968.0498,1953.9379,1793.9673,right,1,left,left,not_eat,not_eat,approach,neg,approach-neg,1,1,1019.8000000000466
sub-103,127,1,FALSE,right,approach,neg,insect8_crop.jpg,2,13,TRUE,126,2,1970.8245,103,DON'T EAT                                    EAT,1970.068,1953.9379,1793.9673,right,2,right,right,eat,eat,approach,neg,approach-neg,1,1,756.5
sub-103,128,1,FALSE,right,approach,neg,insect30_crop.jpg,2,13,TRUE,127,2,1973.0626,103,DON'T EAT                                    EAT,1972.0863,1953.9379,1793.9673,right,2,right,right,eat,eat,approach,neg,approach-neg,1,1,976.2999999998137
sub-103,129,1,FALSE,right,approach,neg,insect21_crop.jpg,2,13,TRUE,128,2,1974.697,103,DON'T EAT                                    EAT,1974.1049,1953.9379,1793.9673,right,2,right,right,eat,eat,approach,neg,approach-neg,1,1,592.0999999998603
sub-103,130,1,FALSE,right,approach,neg,insect33_crop.jpg,2,13,TRUE,129,2,1976.8031,103,DON'T EAT                                    EAT,1976.123,1953.9379,1793.9673,right,2,right,right,eat,eat,approach,neg,approach-neg,1,1,680.1000000000931
sub-103,131,1,FALSE,right,avoid,pos,meat32_crop.jpg,2,14,TRUE,130,--,NA,103,DON'T EAT                                    EAT,1995.2389,1991.219,1793.9673,right,--,NA,NA,no_response,no_response,avoid,pos,avoid-pos,NA,NA,NA
sub-103,132,1,FALSE,right,avoid,pos,meat30_crop.jpg,2,14,TRUE,131,1,1997.2683,103,DON'T EAT                                    EAT,1997.2572,1991.219,1793.9673,right,1,left,left,not_eat,not_eat,avoid,pos,avoid-pos,1,1,11.100000000093132
sub-103,133,1,TRUE,right,approach,pos,cake3_crop.jpg,2,14,TRUE,132,2,2000.3834,103,DON'T EAT                                    EAT,1999.2756,1991.219,1793.9673,right,2,right,right,eat,eat,avoid,pos,avoid-pos,1,1,1107.8000000000466
sub-103,134,1,FALSE,right,avoid,pos,meat20_crop.jpg,2,14,TRUE,133,1,2002.1168,103,DON'T EAT                                    EAT,2001.294,1991.219,1793.9673,right,1,left,left,not_eat,not_eat,avoid,pos,avoid-pos,1,1,822.8000000000466
sub-103,135,1,FALSE,right,avoid,pos,meat24_crop.jpg,2,14,TRUE,134,1,2004.2118,103,DON'T EAT                                    EAT,2003.3123,1991.219,1793.9673,right,1,left,left,not_eat,not_eat,avoid,pos,avoid-pos,1,1,899.5
sub-103,136,1,FALSE,right,avoid,pos,meat28_crop.jpg,2,14,TRUE,135,1,2006.4277,103,DON'T EAT                                    EAT,2005.3306,1991.219,1793.9673,right,1,left,left,not_eat,not_eat,avoid,pos,avoid-pos,1,1,1097.0999999998603
sub-103,137,1,FALSE,right,avoid,pos,meat29_crop.jpg,2,14,TRUE,136,1,2007.9412,103,DON'T EAT                                    EAT,2007.349,1991.219,1793.9673,right,1,left,left,not_eat,not_eat,avoid,pos,avoid-pos,1,1,592.1999999999534
sub-103,138,1,FALSE,right,avoid,pos,meat9_crop.jpg,2,14,TRUE,137,1,2010.9908,103,DON'T EAT                                    EAT,2009.3672,1991.219,1793.9673,right,1,left,left,not_eat,not_eat,avoid,pos,avoid-pos,1,1,1623.6000000000931
sub-103,139,1,FALSE,right,avoid,pos,meat18_crop.jpg,2,14,TRUE,138,1,2012.1975,103,DON'T EAT                                    EAT,2011.3856,1991.219,1793.9673,right,1,left,left,not_eat,not_eat,avoid,pos,avoid-pos,1,1,811.8999999999069
sub-103,140,1,TRUE,right,approach,neg,insect18_crop.jpg,2,14,TRUE,139,2,2014.1387,103,DON'T EAT                                    EAT,2013.404,1991.219,1793.9673,right,2,right,right,eat,eat,avoid,pos,avoid-pos,1,1,734.6999999999534
sub-103,141,1,FALSE,right,avoid,neg,fungus40_crop.jpg,2,15,TRUE,140,1,2032.1282,103,DON'T EAT                                    EAT,2030.7684,2026.7485,1793.9673,right,1,left,left,not_eat,not_eat,avoid,neg,avoid-neg,1,1,1359.8000000002794
sub-103,142,1,FALSE,right,avoid,neg,fungus18_crop.jpg,2,15,TRUE,141,1,2033.5549,103,DON'T EAT                                    EAT,2032.7867,2026.7485,1793.9673,right,1,left,left,not_eat,not_eat,avoid,neg,avoid-neg,1,1,768.1999999999534
sub-103,143,1,TRUE,right,approach,pos,cake28_crop.jpg,2,15,TRUE,142,2,2035.5072,103,DON'T EAT                                    EAT,2034.805,2026.7485,1793.9673,right,2,right,right,eat,eat,avoid,neg,avoid-neg,1,1,702.1999999999534
sub-103,144,1,FALSE,right,avoid,neg,fungus5_crop.jpg,2,15,TRUE,143,1,2037.81,103,DON'T EAT                                    EAT,2036.8232,2026.7485,1793.9673,right,1,left,left,not_eat,not_eat,avoid,neg,avoid-neg,1,1,986.8000000000466
sub-103,145,1,FALSE,right,avoid,neg,fungus1_crop.jpg,2,15,TRUE,144,1,2040.1912,103,DON'T EAT                                    EAT,2038.842,2026.7485,1793.9673,right,1,left,left,not_eat,not_eat,avoid,neg,avoid-neg,1,1,1349.1999999999534
sub-103,146,1,FALSE,right,avoid,neg,fungus38_crop.jpg,2,15,TRUE,145,1,2041.6393,103,DON'T EAT                                    EAT,2040.8602,2026.7485,1793.9673,right,1,left,left,not_eat,not_eat,avoid,neg,avoid-neg,1,1,779.0999999998603
sub-103,147,1,FALSE,right,avoid,neg,fungus17_crop.jpg,2,15,TRUE,146,1,2043.866,103,DON'T EAT                                    EAT,2042.8784,2026.7485,1793.9673,right,1,left,left,not_eat,not_eat,avoid,neg,avoid-neg,1,1,987.5999999998603
sub-103,148,1,TRUE,right,approach,neg,insect14_crop.jpg,2,15,TRUE,147,2,2045.8177,103,DON'T EAT                                    EAT,2044.8969,2026.7485,1793.9673,right,2,right,right,eat,eat,avoid,neg,avoid-neg,1,1,920.8000000000466
sub-103,149,1,FALSE,right,avoid,neg,fungus12_crop.jpg,2,15,TRUE,148,1,2048.616,103,DON'T EAT                                    EAT,2046.9153,2026.7485,1793.9673,right,1,left,left,not_eat,not_eat,avoid,neg,avoid-neg,1,1,1700.7000000001863
sub-103,150,1,FALSE,right,avoid,neg,fungus28_crop.jpg,2,15,TRUE,149,1,2049.657,103,DON'T EAT                                    EAT,2048.9336,2026.7485,1793.9673,right,1,left,left,not_eat,not_eat,avoid,neg,avoid-neg,1,1,723.4000000003725
sub-103,151,2,FALSE,left,avoid,neg,fungus6_crop.jpg,2,16,TRUE,150,1,2069.0442,103,DON'T EAT                                    EAT,2067.849,2063.829,1793.9673,right,1,left,left,not_eat,not_eat,avoid,neg,avoid-neg,1,1,1195.1999999994878
sub-103,152,2,FALSE,left,avoid,neg,fungus5_crop.jpg,2,16,TRUE,151,1,2070.5479,103,DON'T EAT                                    EAT,2069.8674,2063.829,1793.9673,right,1,left,left,not_eat,not_eat,avoid,neg,avoid-neg,1,1,680.5
sub-103,153,2,FALSE,left,avoid,neg,fungus11_crop.jpg,2,16,TRUE,152,1,2072.6208,103,DON'T EAT                                    EAT,2071.886,2063.829,1793.9673,right,1,left,left,not_eat,not_eat,avoid,neg,avoid-neg,1,1,734.8000000000466
sub-103,154,2,TRUE,left,approach,pos,cake10_crop.jpg,2,16,TRUE,153,2,2075.4182,103,DON'T EAT                                    EAT,2073.9043,2063.829,1793.9673,right,2,right,right,eat,eat,avoid,neg,avoid-neg,1,1,1513.9000000001397
sub-103,155,2,FALSE,left,avoid,neg,fungus18_crop.jpg,2,16,TRUE,154,1,2076.7014,103,DON'T EAT                                    EAT,2075.9226,2063.829,1793.9673,right,1,left,left,not_eat,not_eat,avoid,neg,avoid-neg,1,1,778.8000000000466
sub-103,156,2,TRUE,left,approach,neg,insect1_crop.jpg,2,16,TRUE,155,2,2078.6099,103,DON'T EAT                                    EAT,2077.941,2063.829,1793.9673,right,2,right,right,eat,eat,avoid,neg,avoid-neg,1,1,668.9000000001397
sub-103,157,2,FALSE,left,avoid,neg,fungus31_crop.jpg,2,16,TRUE,156,1,2080.727,103,DON'T EAT                                    EAT,2079.9592,2063.829,1793.9673,right,1,left,left,not_eat,not_eat,avoid,neg,avoid-neg,1,1,767.8000000000466
sub-103,158,2,FALSE,left,avoid,neg,fungus30_crop.jpg,2,16,TRUE,157,1,2082.6357,103,DON'T EAT                                    EAT,2081.9775,2063.829,1793.9673,right,1,left,left,not_eat,not_eat,avoid,neg,avoid-neg,1,1,658.1999999997206
sub-103,159,2,FALSE,left,avoid,neg,fungus39_crop.jpg,2,16,TRUE,158,--,NA,103,DON'T EAT                                    EAT,2083.9958,2063.829,1793.9673,right,--,NA,NA,no_response,no_response,avoid,neg,avoid-neg,NA,NA,NA
sub-103,160,2,FALSE,left,avoid,neg,fungus15_crop.jpg,2,16,TRUE,159,1,2086.2007,103,DON'T EAT                                    EAT,2086.0144,2063.829,1793.9673,right,1,left,left,not_eat,not_eat,avoid,neg,avoid-neg,1,1,186.30000000004657
sub-103,161,1,FALSE,left,avoid,pos,meat17_crop.jpg,3,17,TRUE,160,1,2175.7012,103,DON'T EAT                                    EAT,2174.571,2170.5679,2158.5972,left,1,left,left,not_eat,not_eat,avoid,pos,avoid-pos,1,1,1130.2000000001863
sub-103,162,1,TRUE,left,approach,neg,insect19_crop.jpg,3,17,TRUE,161,2,2177.4343,103,DON'T EAT                                    EAT,2176.5896,2170.5679,2158.5972,left,2,right,right,eat,eat,avoid,pos,avoid-pos,1,1,844.7000000001863
sub-103,163,1,FALSE,left,avoid,pos,meat31_crop.jpg,3,17,TRUE,162,1,2179.3647,103,DON'T EAT                                    EAT,2178.608,2170.5679,2158.5972,left,1,left,left,not_eat,not_eat,avoid,pos,avoid-pos,1,1,756.7000000001863
sub-103,164,1,FALSE,left,avoid,pos,meat13_crop.jpg,3,17,TRUE,163,1,2181.5808,103,DON'T EAT                                    EAT,2180.6262,2170.5679,2158.5972,left,1,left,left,not_eat,not_eat,avoid,pos,avoid-pos,1,1,954.6000000000931
sub-103,165,1,TRUE,left,approach,pos,cake8_crop.jpg,3,17,TRUE,164,2,2183.379,103,DON'T EAT                                    EAT,2182.6445,2170.5679,2158.5972,left,2,right,right,eat,eat,avoid,pos,avoid-pos,1,1,734.5
sub-103,166,1,FALSE,left,avoid,pos,meat20_crop.jpg,3,17,TRUE,165,1,2185.343,103,DON'T EAT                                    EAT,2184.6628,2170.5679,2158.5972,left,1,left,left,not_eat,not_eat,avoid,pos,avoid-pos,1,1,680.1999999997206
sub-103,167,1,FALSE,left,avoid,pos,meat5_crop.jpg,3,17,TRUE,166,1,2187.4265,103,DON'T EAT                                    EAT,2186.6812,2170.5679,2158.5972,left,1,left,left,not_eat,not_eat,avoid,pos,avoid-pos,1,1,745.2999999998137
sub-103,168,1,FALSE,left,avoid,pos,meat9_crop.jpg,3,17,TRUE,167,1,2189.4126,103,DON'T EAT                                    EAT,2188.6995,2170.5679,2158.5972,left,1,left,left,not_eat,not_eat,avoid,pos,avoid-pos,1,1,713.1000000000931
sub-103,169,1,FALSE,left,avoid,pos,meat7_crop.jpg,3,17,TRUE,168,1,2191.3542,103,DON'T EAT                                    EAT,2190.7178,2170.5679,2158.5972,left,1,left,left,not_eat,not_eat,avoid,pos,avoid-pos,1,1,636.4000000003725
sub-103,170,1,FALSE,left,avoid,pos,meat10_crop.jpg,3,17,TRUE,169,1,2193.7236,103,DON'T EAT                                    EAT,2192.7363,2170.5679,2158.5972,left,1,left,left,not_eat,not_eat,avoid,pos,avoid-pos,1,1,987.2999999998137
sub-103,171,3,FALSE,left,avoid,pos,meat18_crop.jpg,3,18,TRUE,170,1,2211.9604,103,DON'T EAT                                    EAT,2210.9514,2206.948,2158.5972,left,1,left,left,not_eat,not_eat,avoid,pos,avoid-pos,1,1,1009
sub-103,172,3,TRUE,left,approach,neg,insect40_crop.jpg,3,18,TRUE,171,2,2214.3408,103,DON'T EAT                                    EAT,2212.9697,2206.948,2158.5972,left,2,right,right,eat,eat,avoid,pos,avoid-pos,1,1,1371.0999999996275
sub-103,173,3,FALSE,left,avoid,pos,meat36_crop.jpg,3,18,TRUE,172,1,2215.6355,103,DON'T EAT                                    EAT,2214.988,2206.948,2158.5972,left,1,left,left,not_eat,not_eat,avoid,pos,avoid-pos,1,1,647.5
sub-103,174,3,FALSE,left,avoid,pos,meat23_crop.jpg,3,18,TRUE,173,1,2217.6865,103,DON'T EAT                                    EAT,2217.0066,2206.948,2158.5972,left,1,left,left,not_eat,not_eat,avoid,pos,avoid-pos,1,1,679.8999999999069
sub-103,175,3,FALSE,left,avoid,pos,meat14_crop.jpg,3,18,TRUE,174,1,2219.8804,103,DON'T EAT                                    EAT,2219.0247,2206.948,2158.5972,left,1,left,left,not_eat,not_eat,avoid,pos,avoid-pos,1,1,855.7000000001863
sub-103,176,3,TRUE,left,approach,pos,cake11_crop.jpg,3,18,TRUE,175,2,2222.0522,103,DON'T EAT                                    EAT,2221.043,2206.948,2158.5972,left,2,right,right,eat,eat,avoid,pos,avoid-pos,1,1,1009.2000000001863
sub-103,177,3,FALSE,left,avoid,pos,meat4_crop.jpg,3,18,TRUE,176,1,2223.6648,103,DON'T EAT                                    EAT,2223.0613,2206.948,2158.5972,left,1,left,left,not_eat,not_eat,avoid,pos,avoid-pos,1,1,603.5
sub-103,178,3,FALSE,left,avoid,pos,meat24_crop.jpg,3,18,TRUE,177,1,2225.7927,103,DON'T EAT                                    EAT,2225.0798,2206.948,2158.5972,left,1,left,left,not_eat,not_eat,avoid,pos,avoid-pos,1,1,712.9000000003725
sub-103,179,3,FALSE,left,avoid,pos,meat28_crop.jpg,3,18,TRUE,178,1,2227.8442,103,DON'T EAT                                    EAT,2227.0981,2206.948,2158.5972,left,1,left,left,not_eat,not_eat,avoid,pos,avoid-pos,1,1,746.1000000000931
sub-103,180,3,FALSE,left,avoid,pos,meat38_crop.jpg,3,18,TRUE,179,1,2229.7966,103,DON'T EAT                                    EAT,2229.1165,2206.948,2158.5972,left,1,left,left,not_eat,not_eat,avoid,pos,avoid-pos,1,1,680.1000000000931
sub-103,181,3,FALSE,left,avoid,neg,fungus9_crop.jpg,3,19,TRUE,180,--,NA,103,DON'T EAT                                    EAT,2248.4824,2244.4626,2158.5972,left,--,NA,NA,no_response,no_response,avoid,neg,avoid-neg,NA,NA,NA
sub-103,182,3,FALSE,left,avoid,neg,fungus20_crop.jpg,3,19,TRUE,181,1,2250.578,103,DON'T EAT                                    EAT,2250.5007,2244.4626,2158.5972,left,1,left,left,not_eat,not_eat,avoid,neg,avoid-neg,1,1,77.29999999981374
sub-103,183,3,TRUE,left,approach,neg,insect14_crop.jpg,3,19,TRUE,182,2,2253.353,103,DON'T EAT                                    EAT,2252.519,2244.4626,2158.5972,left,2,right,right,eat,eat,avoid,neg,avoid-neg,1,1,834
sub-103,184,3,FALSE,left,avoid,neg,fungus4_crop.jpg,3,19,TRUE,183,1,2255.4043,103,DON'T EAT                                    EAT,2254.5376,2244.4626,2158.5972,left,1,left,left,not_eat,not_eat,avoid,neg,avoid-neg,1,1,866.7000000001863
sub-103,185,3,FALSE,left,avoid,neg,fungus21_crop.jpg,3,19,TRUE,184,--,NA,103,DON'T EAT                                    EAT,2256.556,2244.4626,2158.5972,left,--,NA,NA,no_response,no_response,avoid,neg,avoid-neg,NA,NA,NA
sub-103,186,3,FALSE,left,avoid,neg,fungus22_crop.jpg,3,19,TRUE,185,1,2259.4453,103,DON'T EAT                                    EAT,2258.5742,2244.4626,2158.5972,left,1,left,left,not_eat,not_eat,avoid,neg,avoid-neg,1,1,871.0999999996275
sub-103,187,3,TRUE,left,approach,pos,cake23_crop.jpg,3,19,TRUE,186,2,2261.4714,103,DON'T EAT                                    EAT,2260.5925,2244.4626,2158.5972,left,2,right,right,eat,eat,avoid,neg,avoid-neg,1,1,878.8999999999069
sub-103,188,3,FALSE,left,avoid,neg,fungus33_crop.jpg,3,19,TRUE,187,1,2263.2998,103,DON'T EAT                                    EAT,2262.6108,2244.4626,2158.5972,left,1,left,left,not_eat,not_eat,avoid,neg,avoid-neg,1,1,689
sub-103,189,3,FALSE,left,avoid,neg,fungus38_crop.jpg,3,19,TRUE,188,1,2265.3533,103,DON'T EAT                                    EAT,2264.6292,2244.4626,2158.5972,left,1,left,left,not_eat,not_eat,avoid,neg,avoid-neg,1,1,724.1000000005588
sub-103,190,3,FALSE,left,avoid,neg,fungus10_crop.jpg,3,19,TRUE,189,1,2267.4043,103,DON'T EAT                                    EAT,2266.6475,2244.4626,2158.5972,left,1,left,left,not_eat,not_eat,avoid,neg,avoid-neg,1,1,756.8000000002794
sub-103,191,0,FALSE,left,approach,pos,cake7_crop.jpg,3,20,TRUE,190,--,NA,103,DON'T EAT                                    EAT,2286.297,2282.294,2158.5972,left,--,NA,NA,no_response,no_response,approach,pos,approach-pos,NA,NA,NA
sub-103,192,0,TRUE,left,avoid,pos,meat33_crop.jpg,3,20,TRUE,191,2,2288.5786,103,DON'T EAT                                    EAT,2288.3154,2282.294,2158.5972,left,2,right,right,eat,eat,approach,pos,approach-pos,0,0,263.1999999997206
sub-103,193,0,FALSE,left,approach,pos,cake26_crop.jpg,3,20,TRUE,192,2,2291.5735,103,DON'T EAT                                    EAT,2290.334,2282.294,2158.5972,left,2,right,right,eat,eat,approach,pos,approach-pos,1,1,1239.5
sub-103,194,0,TRUE,left,avoid,neg,fungus36_crop.jpg,3,20,TRUE,193,1,2293.4824,103,DON'T EAT                                    EAT,2292.3523,2282.294,2158.5972,left,1,left,left,not_eat,not_eat,approach,pos,approach-pos,1,1,1130.1000000000931
sub-103,195,0,FALSE,left,approach,pos,cake6_crop.jpg,3,20,TRUE,194,2,2295.2485,103,DON'T EAT                                    EAT,2294.3706,2282.294,2158.5972,left,2,right,right,eat,eat,approach,pos,approach-pos,1,1,877.8999999999069
sub-103,196,0,FALSE,left,approach,pos,cake38_crop.jpg,3,20,TRUE,195,2,2297.2776,103,DON'T EAT                                    EAT,2296.389,2282.294,2158.5972,left,2,right,right,eat,eat,approach,pos,approach-pos,1,1,888.6000000000931
sub-103,197,0,FALSE,left,approach,pos,cake29_crop.jpg,3,20,TRUE,196,2,2299.4165,103,DON'T EAT                                    EAT,2298.4072,2282.294,2158.5972,left,2,right,right,eat,eat,approach,pos,approach-pos,1,1,1009.2999999998137
sub-103,198,0,FALSE,left,approach,pos,cake28_crop.jpg,3,20,TRUE,197,2,2301.1719,103,DON'T EAT                                    EAT,2300.4255,2282.294,2158.5972,left,2,right,right,eat,eat,approach,pos,approach-pos,1,1,746.3999999999069
sub-103,199,0,FALSE,left,approach,pos,cake12_crop.jpg,3,20,TRUE,198,2,2303.179,103,DON'T EAT                                    EAT,2302.4438,2282.294,2158.5972,left,2,right,right,eat,eat,approach,pos,approach-pos,1,1,735.2000000001863
sub-103,200,0,FALSE,left,approach,pos,cake34_crop.jpg,3,20,TRUE,199,2,2304.967,103,DON'T EAT                                    EAT,2304.4622,2282.294,2158.5972,left,2,right,right,eat,eat,approach,pos,approach-pos,1,1,504.8000000002794
sub-103,201,1,FALSE,left,approach,pos,cake39_crop.jpg,3,21,TRUE,200,2,2325.6616,103,DON'T EAT                                    EAT,2323.9285,2319.9084,2158.5972,left,2,right,right,eat,eat,approach,pos,approach-pos,1,1,1733.1000000000931
sub-103,202,1,TRUE,left,avoid,neg,fungus8_crop.jpg,3,21,TRUE,201,1,2327.318,103,DON'T EAT                                    EAT,2325.9468,2319.9084,2158.5972,left,1,left,left,not_eat,not_eat,approach,pos,approach-pos,1,1,1371.1999999997206
sub-103,203,1,TRUE,left,avoid,pos,meat39_crop.jpg,3,21,TRUE,202,1,2329.0513,103,DON'T EAT                                    EAT,2327.965,2319.9084,2158.5972,left,1,left,left,not_eat,not_eat,approach,pos,approach-pos,1,1,1086.3000000002794
sub-103,204,1,FALSE,left,approach,pos,cake15_crop.jpg,3,21,TRUE,203,2,2330.762,103,DON'T EAT                                    EAT,2329.9834,2319.9084,2158.5972,left,2,right,right,eat,eat,approach,pos,approach-pos,1,1,778.6000000000931
sub-103,205,1,FALSE,left,approach,pos,cake40_crop.jpg,3,21,TRUE,204,2,2333.044,103,DON'T EAT                                    EAT,2332.0017,2319.9084,2158.5972,left,2,right,right,eat,eat,approach,pos,approach-pos,1,1,1042.3000000002794
sub-103,206,1,FALSE,left,approach,pos,cake32_crop.jpg,3,21,TRUE,205,2,2335.556,103,DON'T EAT                                    EAT,2334.0203,2319.9084,2158.5972,left,2,right,right,eat,eat,approach,pos,approach-pos,1,1,1535.6999999997206
sub-103,207,1,FALSE,left,approach,pos,cake25_crop.jpg,3,21,TRUE,206,2,2336.6965,103,DON'T EAT                                    EAT,2336.0386,2319.9084,2158.5972,left,2,right,right,eat,eat,approach,pos,approach-pos,1,1,657.9000000003725
sub-103,208,1,FALSE,left,approach,pos,cake36_crop.jpg,3,21,TRUE,207,2,2338.6821,103,DON'T EAT                                    EAT,2338.057,2319.9084,2158.5972,left,2,right,right,eat,eat,approach,pos,approach-pos,1,1,625.1000000000931
sub-103,209,1,FALSE,left,approach,pos,cake19_crop.jpg,3,21,TRUE,208,2,2340.975,103,DON'T EAT                                    EAT,2340.0752,2319.9084,2158.5972,left,2,right,right,eat,eat,approach,pos,approach-pos,1,1,899.7999999998137
sub-103,210,1,FALSE,left,approach,pos,cake14_crop.jpg,3,21,TRUE,209,2,2342.752,103,DON'T EAT                                    EAT,2342.0935,2319.9084,2158.5972,left,2,right,right,eat,eat,approach,pos,approach-pos,1,1,658.5
sub-103,211,0,TRUE,right,approach,neg,insect19_crop.jpg,3,22,TRUE,210,2,2362.2542,103,DON'T EAT                                    EAT,2361.3928,2357.3896,2158.5972,left,2,right,right,eat,eat,avoid,neg,avoid-neg,1,1,861.3999999994412
sub-103,212,0,FALSE,right,avoid,neg,fungus20_crop.jpg,3,22,TRUE,211,1,2364.2537,103,DON'T EAT                                    EAT,2363.4111,2357.3896,2158.5972,left,1,left,left,not_eat,not_eat,avoid,neg,avoid-neg,1,1,842.6000000005588
sub-103,213,0,FALSE,right,avoid,neg,fungus9_crop.jpg,3,22,TRUE,212,1,2366.7893,103,DON'T EAT                                    EAT,2365.4294,2357.3896,2158.5972,left,1,left,left,not_eat,not_eat,avoid,neg,avoid-neg,1,1,1359.8999999999069
sub-103,214,0,FALSE,right,avoid,neg,fungus24_crop.jpg,3,22,TRUE,213,1,2368.128,103,DON'T EAT                                    EAT,2367.448,2357.3896,2158.5972,left,1,left,left,not_eat,not_eat,avoid,neg,avoid-neg,1,1,680
sub-103,215,0,FALSE,right,avoid,neg,fungus8_crop.jpg,3,22,TRUE,214,1,2370.1245,103,DON'T EAT                                    EAT,2369.4663,2357.3896,2158.5972,left,1,left,left,not_eat,not_eat,avoid,neg,avoid-neg,1,1,658.2000000001863
sub-103,216,0,FALSE,right,avoid,neg,fungus29_crop.jpg,3,22,TRUE,215,1,2372.1099,103,DON'T EAT                                    EAT,2371.4846,2357.3896,2158.5972,left,1,left,left,not_eat,not_eat,avoid,neg,avoid-neg,1,1,625.3000000002794
sub-103,217,0,TRUE,right,approach,pos,cake33_crop.jpg,3,22,TRUE,216,2,2374.4573,103,DON'T EAT                                    EAT,2373.503,2357.3896,2158.5972,left,2,right,right,eat,eat,avoid,neg,avoid-neg,1,1,954.2999999998137
sub-103,218,0,FALSE,right,avoid,neg,fungus34_crop.jpg,3,22,TRUE,217,1,2376.772,103,DON'T EAT                                    EAT,2375.5212,2357.3896,2158.5972,left,1,left,left,not_eat,not_eat,avoid,neg,avoid-neg,1,1,1250.7999999998137
sub-103,219,0,FALSE,right,avoid,neg,fungus21_crop.jpg,3,22,TRUE,218,2,2378.0771,103,DON'T EAT                                    EAT,2377.5396,2357.3896,2158.5972,left,2,right,right,eat,eat,avoid,neg,avoid-neg,0,0,537.5
sub-103,220,0,FALSE,right,avoid,neg,fungus30_crop.jpg,3,22,TRUE,219,1,2380.359,103,DON'T EAT                                    EAT,2379.5579,2357.3896,2158.5972,left,1,left,left,not_eat,not_eat,avoid,neg,avoid-neg,1,1,801.1000000000931
sub-103,221,2,FALSE,left,avoid,pos,meat11_crop.jpg,3,23,TRUE,220,1,2397.4177,103,DON'T EAT                                    EAT,2396.2551,2392.235,2158.5972,left,1,left,left,not_eat,not_eat,avoid,pos,avoid-pos,1,1,1162.6000000005588
sub-103,222,2,TRUE,left,approach,neg,insect16_crop.jpg,3,23,TRUE,221,2,2399.4146,103,DON'T EAT                                    EAT,2398.2734,2392.235,2158.5972,left,2,right,right,eat,eat,avoid,pos,avoid-pos,1,1,1141.2000000001863
sub-103,223,2,FALSE,left,avoid,pos,meat26_crop.jpg,3,23,TRUE,222,1,2401.6077,103,DON'T EAT                                    EAT,2400.2917,2392.235,2158.5972,left,1,left,left,not_eat,not_eat,avoid,pos,avoid-pos,1,1,1316
sub-103,224,2,FALSE,left,avoid,pos,meat19_crop.jpg,3,23,TRUE,223,1,2403.0232,103,DON'T EAT                                    EAT,2402.3103,2392.235,2158.5972,left,1,left,left,not_eat,not_eat,avoid,pos,avoid-pos,1,1,712.8999999999069
sub-103,225,2,FALSE,left,avoid,pos,meat32_crop.jpg,3,23,TRUE,224,1,2405.2166,103,DON'T EAT                                    EAT,2404.3286,2392.235,2158.5972,left,1,left,left,not_eat,not_eat,avoid,pos,avoid-pos,1,1,888.0000000004657
sub-103,226,2,FALSE,left,avoid,pos,meat12_crop.jpg,3,23,TRUE,225,1,2406.9944,103,DON'T EAT                                    EAT,2406.347,2392.235,2158.5972,left,1,left,left,not_eat,not_eat,avoid,pos,avoid-pos,1,1,647.3999999999069
sub-103,227,2,FALSE,left,avoid,pos,meat22_crop.jpg,3,23,TRUE,226,1,2409.0447,103,DON'T EAT                                    EAT,2408.3652,2392.235,2158.5972,left,1,left,left,not_eat,not_eat,avoid,pos,avoid-pos,1,1,679.4999999995343
sub-103,228,2,TRUE,left,approach,pos,cake2_crop.jpg,3,23,TRUE,227,2,2411.4148,103,DON'T EAT                                    EAT,2410.3835,2392.235,2158.5972,left,2,right,right,eat,eat,avoid,pos,avoid-pos,1,1,1031.2999999998137
sub-103,229,2,FALSE,left,avoid,pos,meat40_crop.jpg,3,23,TRUE,228,1,2413.433,103,DON'T EAT                                    EAT,2412.4019,2392.235,2158.5972,left,1,left,left,not_eat,not_eat,avoid,pos,avoid-pos,1,1,1031.1000000000931
sub-103,230,2,FALSE,left,avoid,pos,meat2_crop.jpg,3,23,TRUE,229,1,2415.4841,103,DON'T EAT                                    EAT,2414.4202,2392.235,2158.5972,left,1,left,left,not_eat,not_eat,avoid,pos,avoid-pos,1,1,1063.8999999999069
sub-103,231,2,FALSE,left,approach,neg,insect5_crop.jpg,3,24,TRUE,230,--,NA,103,DON'T EAT                                    EAT,2433.5527,2429.5327,2158.5972,left,--,NA,NA,no_response,no_response,approach,neg,approach-neg,NA,NA,NA
sub-103,232,2,FALSE,left,approach,neg,insect27_crop.jpg,3,24,TRUE,231,2,2435.648,103,DON'T EAT                                    EAT,2435.571,2429.5327,2158.5972,left,2,right,right,eat,eat,approach,neg,approach-neg,1,1,77
sub-103,233,2,TRUE,left,avoid,pos,meat1_crop.jpg,3,24,TRUE,232,2,2439.5823,103,DON'T EAT                                    EAT,2437.5896,2429.5327,2158.5972,left,2,right,right,eat,eat,approach,neg,approach-neg,0,0,1992.7000000001863
sub-103,234,2,FALSE,left,approach,neg,insect10_crop.jpg,3,24,TRUE,233,2,2440.6055,103,DON'T EAT                                    EAT,2439.608,2429.5327,2158.5972,left,2,right,right,eat,eat,approach,neg,approach-neg,1,1,997.5
sub-103,235,2,FALSE,left,approach,neg,insect35_crop.jpg,3,24,TRUE,234,2,2442.1968,103,DON'T EAT                                    EAT,2441.6262,2429.5327,2158.5972,left,2,right,right,eat,eat,approach,neg,approach-neg,1,1,570.6000000000931
sub-103,236,2,FALSE,left,approach,neg,insect38_crop.jpg,3,24,TRUE,235,2,2444.1265,103,DON'T EAT                                    EAT,2443.6445,2429.5327,2158.5972,left,2,right,right,eat,eat,approach,neg,approach-neg,1,1,482
sub-103,237,2,FALSE,left,approach,neg,insect13_crop.jpg,3,24,TRUE,236,2,2446.2004,103,DON'T EAT                                    EAT,2445.6628,2429.5327,2158.5972,left,2,right,right,eat,eat,approach,neg,approach-neg,1,1,537.6000000000931
sub-103,238,2,TRUE,left,avoid,neg,fungus40_crop.jpg,3,24,TRUE,237,1,2448.7126,103,DON'T EAT                                    EAT,2447.6812,2429.5327,2158.5972,left,1,left,left,not_eat,not_eat,approach,neg,approach-neg,1,1,1031.3999999994412
sub-103,239,2,FALSE,left,approach,neg,insect29_crop.jpg,3,24,TRUE,238,2,2450.588,103,DON'T EAT                                    EAT,2449.6995,2429.5327,2158.5972,left,2,right,right,eat,eat,approach,neg,approach-neg,1,1,888.5
sub-103,240,2,FALSE,left,approach,neg,insect2_crop.jpg,3,24,TRUE,239,2,2452.6392,103,DON'T EAT                                    EAT,2451.718,2429.5327,2158.5972,left,2,right,right,eat,eat,approach,neg,approach-neg,1,1,921.2000000001863
sub-103,241,0,FALSE,left,avoid,neg,fungus1_crop.jpg,4,25,TRUE,240,1,2542.785,103,DON'T EAT                                    EAT,2541.776,2537.7559,2523.9832,right,1,left,left,not_eat,not_eat,avoid,neg,avoid-neg,1,1,1009
sub-103,242,0,FALSE,left,avoid,neg,fungus35_crop.jpg,4,25,TRUE,241,1,2544.65,103,DON'T EAT                                    EAT,2543.7942,2537.7559,2523.9832,right,1,left,left,not_eat,not_eat,avoid,neg,avoid-neg,1,1,855.8000000002794
sub-103,243,0,TRUE,left,approach,neg,insect34_crop.jpg,4,25,TRUE,242,2,2546.5916,103,DON'T EAT                                    EAT,2545.8127,2537.7559,2523.9832,right,2,right,right,eat,eat,avoid,neg,avoid-neg,1,1,778.9000000003725
sub-103,244,0,FALSE,left,avoid,neg,fungus17_crop.jpg,4,25,TRUE,243,1,2548.5444,103,DON'T EAT                                    EAT,2547.831,2537.7559,2523.9832,right,1,left,left,not_eat,not_eat,avoid,neg,avoid-neg,1,1,713.4000000003725
sub-103,245,0,TRUE,left,approach,pos,cake22_crop.jpg,4,25,TRUE,244,2,2550.749,103,DON'T EAT                                    EAT,2549.8494,2537.7559,2523.9832,right,2,right,right,eat,eat,avoid,neg,avoid-neg,1,1,899.6000000000931
sub-103,246,0,FALSE,left,avoid,neg,fungus2_crop.jpg,4,25,TRUE,245,1,2552.91,103,DON'T EAT                                    EAT,2551.868,2537.7559,2523.9832,right,1,left,left,not_eat,not_eat,avoid,neg,avoid-neg,1,1,1042
sub-103,247,0,FALSE,left,avoid,neg,fungus27_crop.jpg,4,25,TRUE,246,1,2554.764,103,DON'T EAT                                    EAT,2553.886,2537.7559,2523.9832,right,1,left,left,not_eat,not_eat,avoid,neg,avoid-neg,1,1,878
sub-103,248,0,FALSE,left,avoid,neg,fungus12_crop.jpg,4,25,TRUE,247,1,2557.3855,103,DON'T EAT                                    EAT,2555.9045,2537.7559,2523.9832,right,1,left,left,not_eat,not_eat,avoid,neg,avoid-neg,1,1,1481
sub-103,249,0,FALSE,left,avoid,neg,fungus13_crop.jpg,4,25,TRUE,248,1,2558.8445,103,DON'T EAT                                    EAT,2557.9226,2537.7559,2523.9832,right,1,left,left,not_eat,not_eat,avoid,neg,avoid-neg,1,1,921.8999999999069
sub-103,250,0,FALSE,left,avoid,neg,fungus24_crop.jpg,4,25,TRUE,249,1,2560.643,103,DON'T EAT                                    EAT,2559.9412,2537.7559,2523.9832,right,1,left,left,not_eat,not_eat,avoid,neg,avoid-neg,1,1,701.7999999998137
sub-103,251,3,FALSE,right,avoid,neg,fungus13_crop.jpg,4,26,TRUE,250,1,2579.9297,103,DON'T EAT                                    EAT,2579.107,2575.1038,2523.9832,right,1,left,left,not_eat,not_eat,avoid,neg,avoid-neg,1,1,822.7000000001863
sub-103,252,3,FALSE,right,avoid,neg,fungus31_crop.jpg,4,26,TRUE,251,1,2581.8494,103,DON'T EAT                                    EAT,2581.1252,2575.1038,2523.9832,right,1,left,left,not_eat,not_eat,avoid,neg,avoid-neg,1,1,724.2000000001863
sub-103,253,3,FALSE,right,avoid,neg,fungus3_crop.jpg,4,26,TRUE,252,1,2583.8677,103,DON'T EAT                                    EAT,2583.1436,2575.1038,2523.9832,right,1,left,left,not_eat,not_eat,avoid,neg,avoid-neg,1,1,724.0999999996275
sub-103,254,3,FALSE,right,avoid,neg,fungus37_crop.jpg,4,26,TRUE,253,1,2585.9412,103,DON'T EAT                                    EAT,2585.1619,2575.1038,2523.9832,right,1,left,left,not_eat,not_eat,avoid,neg,avoid-neg,1,1,779.3000000002794
sub-103,255,3,FALSE,right,avoid,neg,fungus22_crop.jpg,4,26,TRUE,254,1,2587.7947,103,DON'T EAT                                    EAT,2587.1804,2575.1038,2523.9832,right,1,left,left,not_eat,not_eat,avoid,neg,avoid-neg,1,1,614.2999999993481
sub-103,256,3,TRUE,right,approach,pos,cake19_crop.jpg,4,26,TRUE,255,2,2590.5254,103,DON'T EAT                                    EAT,2589.1987,2575.1038,2523.9832,right,2,right,right,eat,eat,avoid,neg,avoid-neg,1,1,1326.7000000001863
sub-103,257,3,TRUE,right,approach,neg,insect24_crop.jpg,4,26,TRUE,256,2,2593.0496,103,DON'T EAT                                    EAT,2591.217,2575.1038,2523.9832,right,2,right,right,eat,eat,avoid,neg,avoid-neg,1,1,1832.5999999996275
sub-103,258,3,FALSE,right,avoid,neg,fungus39_crop.jpg,4,26,TRUE,257,1,2593.9048,103,DON'T EAT                                    EAT,2593.2354,2575.1038,2523.9832,right,1,left,left,not_eat,not_eat,avoid,neg,avoid-neg,1,1,669.3999999999069
sub-103,259,3,FALSE,right,avoid,neg,fungus4_crop.jpg,4,26,TRUE,258,1,2596.0657,103,DON'T EAT                                    EAT,2595.2537,2575.1038,2523.9832,right,1,left,left,not_eat,not_eat,avoid,neg,avoid-neg,1,1,812
sub-103,260,3,FALSE,right,avoid,neg,fungus32_crop.jpg,4,26,TRUE,259,1,2598.2046,103,DON'T EAT                                    EAT,2597.272,2575.1038,2523.9832,right,1,left,left,not_eat,not_eat,avoid,neg,avoid-neg,1,1,932.6000000000931
sub-103,261,0,FALSE,left,avoid,pos,meat16_crop.jpg,4,27,TRUE,260,1,2617.753,103,DON'T EAT                                    EAT,2616.371,2612.351,2523.9832,right,1,left,left,not_eat,not_eat,avoid,pos,avoid-pos,1,1,1382
sub-103,262,0,FALSE,left,avoid,pos,meat29_crop.jpg,4,27,TRUE,261,1,2619.4973,103,DON'T EAT                                    EAT,2618.3896,2612.351,2523.9832,right,1,left,left,not_eat,not_eat,avoid,pos,avoid-pos,1,1,1107.6999999997206
sub-103,263,0,FALSE,left,avoid,pos,meat3_crop.jpg,4,27,TRUE,262,1,2621.0222,103,DON'T EAT                                    EAT,2620.408,2612.351,2523.9832,right,1,left,left,not_eat,not_eat,avoid,pos,avoid-pos,1,1,614.1999999997206
sub-103,264,0,FALSE,left,avoid,pos,meat25_crop.jpg,4,27,TRUE,263,1,2623.0625,103,DON'T EAT                                    EAT,2622.4263,2612.351,2523.9832,right,1,left,left,not_eat,not_eat,avoid,pos,avoid-pos,1,1,636.1999999997206
sub-103,265,0,FALSE,left,avoid,pos,meat15_crop.jpg,4,27,TRUE,264,1,2625.0808,103,DON'T EAT                                    EAT,2624.4446,2612.351,2523.9832,right,1,left,left,not_eat,not_eat,avoid,pos,avoid-pos,1,1,636.2000000006519
sub-103,266,0,TRUE,left,approach,neg,insect9_crop.jpg,4,27,TRUE,265,2,2627.571,103,DON'T EAT                                    EAT,2626.463,2612.351,2523.9832,right,2,right,right,eat,eat,avoid,pos,avoid-pos,1,1,1108
sub-103,267,0,FALSE,left,avoid,pos,meat8_crop.jpg,4,27,TRUE,266,1,2630.0613,103,DON'T EAT                                    EAT,2628.4814,2612.351,2523.9832,right,1,left,left,not_eat,not_eat,avoid,pos,avoid-pos,1,1,1579.8999999999069
sub-103,268,0,FALSE,left,avoid,pos,meat27_crop.jpg,4,27,TRUE,267,1,2631.1472,103,DON'T EAT                                    EAT,2630.4995,2612.351,2523.9832,right,1,left,left,not_eat,not_eat,avoid,pos,avoid-pos,1,1,647.6999999997206
sub-103,269,0,FALSE,left,avoid,pos,meat30_crop.jpg,4,27,TRUE,268,1,2633.264,103,DON'T EAT                                    EAT,2632.518,2612.351,2523.9832,right,1,left,left,not_eat,not_eat,avoid,pos,avoid-pos,1,1,746
sub-103,270,0,TRUE,left,approach,pos,cake4_crop.jpg,4,27,TRUE,269,2,2635.765,103,DON'T EAT                                    EAT,2634.5364,2612.351,2523.9832,right,2,right,right,eat,eat,avoid,pos,avoid-pos,1,1,1228.6000000000931
sub-103,271,3,FALSE,left,approach,pos,cake37_crop.jpg,4,28,TRUE,270,2,2654.0168,103,DON'T EAT                                    EAT,2653.085,2649.065,2523.9832,right,2,right,right,eat,eat,approach,pos,approach-pos,1,1,931.7999999998137
sub-103,272,3,FALSE,left,approach,pos,cake27_crop.jpg,4,28,TRUE,271,2,2655.7612,103,DON'T EAT                                    EAT,2655.1033,2649.065,2523.9832,right,2,right,right,eat,eat,approach,pos,approach-pos,1,1,657.8999999994412
sub-103,273,3,FALSE,left,approach,pos,cake31_crop.jpg,4,28,TRUE,272,2,2657.6914,103,DON'T EAT                                    EAT,2657.1218,2649.065,2523.9832,right,2,right,right,eat,eat,approach,pos,approach-pos,1,1,569.6000000005588
sub-103,274,3,FALSE,left,approach,pos,cake3_crop.jpg,4,28,TRUE,273,2,2659.8423,103,DON'T EAT                                    EAT,2659.1401,2649.065,2523.9832,right,2,right,right,eat,eat,approach,pos,approach-pos,1,1,702.1999999997206
sub-103,275,3,TRUE,left,avoid,neg,fungus14_crop.jpg,4,28,TRUE,274,1,2662.145,103,DON'T EAT                                    EAT,2661.1584,2649.065,2523.9832,right,1,left,left,not_eat,not_eat,approach,pos,approach-pos,1,1,986.6000000000931
sub-103,276,3,FALSE,left,approach,pos,cake33_crop.jpg,4,28,TRUE,275,2,2664.032,103,DON'T EAT                                    EAT,2663.1768,2649.065,2523.9832,right,2,right,right,eat,eat,approach,pos,approach-pos,1,1,855.1999999997206
sub-103,277,3,TRUE,left,avoid,pos,meat21_crop.jpg,4,28,TRUE,276,1,2666.2502,103,DON'T EAT                                    EAT,2665.195,2649.065,2523.9832,right,1,left,left,not_eat,not_eat,approach,pos,approach-pos,1,1,1055.1999999997206
sub-103,278,3,FALSE,left,approach,pos,cake1_crop.jpg,4,28,TRUE,277,2,2668.1016,103,DON'T EAT                                    EAT,2667.2139,2649.065,2523.9832,right,2,right,right,eat,eat,approach,pos,approach-pos,1,1,887.6999999997206
sub-103,279,3,FALSE,left,approach,pos,cake13_crop.jpg,4,28,TRUE,278,--,NA,103,DON'T EAT                                    EAT,2669.2324,2649.065,2523.9832,right,--,NA,NA,no_response,no_response,approach,pos,approach-pos,NA,NA,NA
sub-103,280,3,FALSE,left,approach,pos,cake24_crop.jpg,4,28,TRUE,279,1,2671.3032,103,DON'T EAT                                    EAT,2671.2507,2649.065,2523.9832,right,1,left,left,not_eat,not_eat,approach,pos,approach-pos,0,0,52.49999999953434
sub-103,281,3,FALSE,left,approach,neg,insect8_crop.jpg,4,29,TRUE,280,2,2689.5408,103,DON'T EAT                                    EAT,2688.148,2684.1282,2523.9832,right,2,right,right,eat,eat,approach,neg,approach-neg,1,1,1392.8000000002794
sub-103,282,3,FALSE,left,approach,neg,insect18_crop.jpg,4,29,TRUE,281,2,2690.7583,103,DON'T EAT                                    EAT,2690.1663,2684.1282,2523.9832,right,2,right,right,eat,eat,approach,neg,approach-neg,1,1,592
sub-103,283,3,FALSE,left,approach,neg,insect30_crop.jpg,4,29,TRUE,282,2,2692.6484,103,DON'T EAT                                    EAT,2692.1848,2684.1282,2523.9832,right,2,right,right,eat,eat,approach,neg,approach-neg,1,1,463.60000000009313
sub-103,284,3,FALSE,left,approach,neg,insect22_crop.jpg,4,29,TRUE,283,2,2694.7783,103,DON'T EAT                                    EAT,2694.2026,2684.1282,2523.9832,right,2,right,right,eat,eat,approach,neg,approach-neg,1,1,575.6999999997206
sub-103,285,3,FALSE,left,approach,neg,insect36_crop.jpg,4,29,TRUE,284,2,2696.6902,103,DON'T EAT                                    EAT,2696.2214,2684.1282,2523.9832,right,2,right,right,eat,eat,approach,neg,approach-neg,1,1,468.8000000002794
sub-103,286,3,TRUE,left,avoid,pos,meat37_crop.jpg,4,29,TRUE,285,1,2699.509,103,DON'T EAT                                    EAT,2698.2397,2684.1282,2523.9832,right,1,left,left,not_eat,not_eat,approach,neg,approach-neg,1,1,1269.2999999998137
sub-103,287,3,FALSE,left,approach,neg,insect31_crop.jpg,4,29,TRUE,286,2,2701.1868,103,DON'T EAT                                    EAT,2700.258,2684.1282,2523.9832,right,2,right,right,eat,eat,approach,neg,approach-neg,1,1,928.7999999998137
sub-103,288,3,TRUE,left,avoid,neg,fungus3_crop.jpg,4,29,TRUE,287,2,2703.7166,103,DON'T EAT                                    EAT,2702.2761,2684.1282,2523.9832,right,2,right,right,eat,eat,approach,neg,approach-neg,0,0,1440.5
sub-103,289,3,FALSE,left,approach,neg,insect7_crop.jpg,4,29,TRUE,288,1,2705.0037,103,DON'T EAT                                    EAT,2704.2947,2684.1282,2523.9832,right,1,left,left,not_eat,not_eat,approach,neg,approach-neg,0,0,709.0000000004657
sub-103,290,3,FALSE,left,approach,neg,insect33_crop.jpg,4,29,TRUE,289,2,2707.8489,103,DON'T EAT                                    EAT,2706.3132,2684.1282,2523.9832,right,2,right,right,eat,eat,approach,neg,approach-neg,1,1,1535.6999999997206
sub-103,291,2,FALSE,right,approach,neg,insect9_crop.jpg,4,30,TRUE,290,2,2724.627,103,DON'T EAT                                    EAT,2723.3105,2719.2905,2523.9832,right,2,right,right,eat,eat,approach,neg,approach-neg,1,1,1316.5
sub-103,292,2,FALSE,right,approach,neg,insect32_crop.jpg,4,30,TRUE,291,2,2725.9138,103,DON'T EAT                                    EAT,2725.3289,2719.2905,2523.9832,right,2,right,right,eat,eat,approach,neg,approach-neg,1,1,584.8999999999069
sub-103,293,2,TRUE,right,avoid,pos,meat3_crop.jpg,4,30,TRUE,292,1,2728.2764,103,DON'T EAT                                    EAT,2727.3467,2719.2905,2523.9832,right,1,left,left,not_eat,not_eat,approach,neg,approach-neg,1,1,929.7000000001863
sub-103,294,2,FALSE,right,approach,neg,insect23_crop.jpg,4,30,TRUE,293,2,2730.319,103,DON'T EAT                                    EAT,2729.3652,2719.2905,2523.9832,right,2,right,right,eat,eat,approach,neg,approach-neg,1,1,953.7999999998137
sub-103,295,2,FALSE,right,approach,neg,insect39_crop.jpg,4,30,TRUE,294,2,2732.4019,103,DON'T EAT                                    EAT,2731.3838,2719.2905,2523.9832,right,2,right,right,eat,eat,approach,neg,approach-neg,1,1,1018.0999999996275
sub-103,296,2,FALSE,right,approach,neg,insect34_crop.jpg,4,30,TRUE,295,2,2734.0276,103,DON'T EAT                                    EAT,2733.4023,2719.2905,2523.9832,right,2,right,right,eat,eat,approach,neg,approach-neg,1,1,625.2999999998137
sub-103,297,2,FALSE,right,approach,neg,insect15_crop.jpg,4,30,TRUE,296,2,2736.4036,103,DON'T EAT                                    EAT,2735.4207,2719.2905,2523.9832,right,2,right,right,eat,eat,approach,neg,approach-neg,1,1,982.8999999999069
sub-103,298,2,FALSE,right,approach,neg,insect37_crop.jpg,4,30,TRUE,297,2,2738.3835,103,DON'T EAT                                    EAT,2737.4385,2719.2905,2523.9832,right,2,right,right,eat,eat,approach,neg,approach-neg,1,1,945
sub-103,299,2,TRUE,right,avoid,neg,fungus15_crop.jpg,4,30,TRUE,298,1,2740.5247,103,DON'T EAT                                    EAT,2739.457,2719.2905,2523.9832,right,1,left,left,not_eat,not_eat,approach,neg,approach-neg,1,1,1067.6999999997206
sub-103,300,2,FALSE,right,approach,neg,insect3_crop.jpg,4,30,TRUE,299,2,2742.6177,103,DON'T EAT                                    EAT,2741.4758,2719.2905,2523.9832,right,2,right,right,eat,eat,approach,neg,approach-neg,1,1,1141.8999999994412
sub-103,301,2,FALSE,right,avoid,pos,meat26_crop.jpg,4,31,TRUE,300,1,2759.9082,103,DON'T EAT                                    EAT,2758.2563,2754.236,2523.9832,right,1,left,left,not_eat,not_eat,avoid,pos,avoid-pos,1,1,1651.8999999999069
sub-103,302,2,FALSE,right,avoid,pos,meat25_crop.jpg,4,31,TRUE,301,--,NA,103,DON'T EAT                                    EAT,2760.2747,2754.236,2523.9832,right,--,NA,NA,no_response,no_response,avoid,pos,avoid-pos,NA,NA,NA
sub-103,303,2,FALSE,right,avoid,pos,meat13_crop.jpg,4,31,TRUE,302,1,2762.3677,103,DON'T EAT                                    EAT,2762.2927,2754.236,2523.9832,right,1,left,left,not_eat,not_eat,avoid,pos,avoid-pos,1,1,74.99999999953434
sub-103,304,2,TRUE,right,approach,neg,insect7_crop.jpg,4,31,TRUE,303,2,2765.022,103,DON'T EAT                                    EAT,2764.3113,2754.236,2523.9832,right,2,right,right,eat,eat,avoid,pos,avoid-pos,1,1,710.7000000001863
sub-103,305,2,TRUE,right,approach,pos,cake30_crop.jpg,4,31,TRUE,304,2,2767.2332,103,DON'T EAT                                    EAT,2766.3296,2754.236,2523.9832,right,2,right,right,eat,eat,avoid,pos,avoid-pos,1,1,903.6000000000931
sub-103,306,2,FALSE,right,avoid,pos,meat8_crop.jpg,4,31,TRUE,305,1,2769.966,103,DON'T EAT                                    EAT,2768.3481,2754.236,2523.9832,right,1,left,left,not_eat,not_eat,avoid,pos,avoid-pos,1,1,1617.8999999999069
sub-103,307,2,FALSE,right,avoid,pos,meat1_crop.jpg,4,31,TRUE,306,1,2771.522,103,DON'T EAT                                    EAT,2770.366,2754.236,2523.9832,right,1,left,left,not_eat,not_eat,avoid,pos,avoid-pos,1,1,1156
sub-103,308,2,FALSE,right,avoid,pos,meat19_crop.jpg,4,31,TRUE,307,1,2773.2532,103,DON'T EAT                                    EAT,2772.3845,2754.236,2523.9832,right,1,left,left,not_eat,not_eat,avoid,pos,avoid-pos,1,1,868.7000000001863
sub-103,309,2,FALSE,right,avoid,pos,meat2_crop.jpg,4,31,TRUE,308,1,2775.7275,103,DON'T EAT                                    EAT,2774.403,2754.236,2523.9832,right,1,left,left,not_eat,not_eat,avoid,pos,avoid-pos,1,1,1324.5
sub-103,310,2,FALSE,right,avoid,pos,meat23_crop.jpg,4,31,TRUE,309,1,2777.1133,103,DON'T EAT                                    EAT,2776.4214,2754.236,2523.9832,right,1,left,left,not_eat,not_eat,avoid,pos,avoid-pos,1,1,691.8999999994412
sub-103,311,2,TRUE,right,avoid,neg,fungus6_crop.jpg,4,32,TRUE,310,1,2794.4043,103,DON'T EAT                                    EAT,2793.302,2789.282,2523.9832,right,1,left,left,not_eat,not_eat,approach,pos,approach-pos,1,1,1102.3000000002794
sub-103,312,2,FALSE,right,approach,pos,cake40_crop.jpg,4,32,TRUE,311,2,2796.1877,103,DON'T EAT                                    EAT,2795.3203,2789.282,2523.9832,right,2,right,right,eat,eat,approach,pos,approach-pos,1,1,867.3999999999069
sub-103,313,2,TRUE,right,avoid,pos,meat40_crop.jpg,4,32,TRUE,312,1,2799.1575,103,DON'T EAT                                    EAT,2797.3389,2789.282,2523.9832,right,1,left,left,not_eat,not_eat,approach,pos,approach-pos,1,1,1818.5999999996275
sub-103,314,2,FALSE,right,approach,pos,cake37_crop.jpg,4,32,TRUE,313,2,2800.2446,103,DON'T EAT                                    EAT,2799.357,2789.282,2523.9832,right,2,right,right,eat,eat,approach,pos,approach-pos,1,1,887.6000000000931
sub-103,315,2,FALSE,right,approach,pos,cake32_crop.jpg,4,32,TRUE,314,2,2802.378,103,DON'T EAT                                    EAT,2801.3755,2789.282,2523.9832,right,2,right,right,eat,eat,approach,pos,approach-pos,1,1,1002.5
sub-103,316,2,FALSE,right,approach,pos,cake17_crop.jpg,4,32,TRUE,315,2,2804.468,103,DON'T EAT                                    EAT,2803.3938,2789.282,2523.9832,right,2,right,right,eat,eat,approach,pos,approach-pos,1,1,1074.2000000001863
sub-103,317,2,FALSE,right,approach,pos,cake2_crop.jpg,4,32,TRUE,316,2,2806.526,103,DON'T EAT                                    EAT,2805.4124,2789.282,2523.9832,right,2,right,right,eat,eat,approach,pos,approach-pos,1,1,1113.5999999996275
sub-103,318,2,FALSE,right,approach,pos,cake25_crop.jpg,4,32,TRUE,317,2,2808.1367,103,DON'T EAT                                    EAT,2807.43,2789.282,2523.9832,right,2,right,right,eat,eat,approach,pos,approach-pos,1,1,706.7000000001863
sub-103,319,2,FALSE,right,approach,pos,cake38_crop.jpg,4,32,TRUE,318,2,2810.0857,103,DON'T EAT                                    EAT,2809.4487,2789.282,2523.9832,right,2,right,right,eat,eat,approach,pos,approach-pos,1,1,637.0000000004657
sub-103,320,2,FALSE,right,approach,pos,cake15_crop.jpg,4,32,TRUE,319,2,2812.0803,103,DON'T EAT                                    EAT,2811.467,2789.282,2523.9832,right,2,right,right,eat,eat,approach,pos,approach-pos,1,1,613.3000000002794
