TrialNumber,n_block,catch,hand,mot,val,stim_name,run_number,num_block,ran,order,Subject number,n_b,left_side_resp_label,trial_onset,blk_instr_onset,baseline_onset,response,RT
1,3,False,right,avoid,neg,fungus25_crop.jpg,1,1,1.0,0.0,57.0,1.0,DON'T EAT                                    EAT,1749.7521,1745.7317,1733.7006,--,--
2,3,False,right,avoid,neg,fungus28_crop.jpg,1,1,1.0,1.0,57.0,1.0,DON'T EAT                                    EAT,1751.7701,1745.7317,1733.7006,1,1752.8817
3,3,False,right,avoid,neg,fungus11_crop.jpg,1,1,1.0,2.0,57.0,1.0,DON'T EAT                                    EAT,1753.7887,1745.7317,1733.7006,1,1754.8888
4,3,False,right,avoid,neg,fungus9_crop.jpg,1,1,1.0,3.0,57.0,1.0,DON'T EAT                                    EAT,1755.81,1745.7317,1733.7006,1,1756.5651
5,3,False,right,avoid,neg,fungus16_crop.jpg,1,1,1.0,4.0,57.0,1.0,DON'T EAT                                    EAT,1757.8273,1745.7317,1733.7006,1,1759.0107
6,3,False,right,avoid,neg,fungus15_crop.jpg,1,1,1.0,5.0,57.0,1.0,DON'T EAT                                    EAT,1759.8434,1745.7317,1733.7006,1,1760.6174
7,3,False,right,avoid,neg,fungus8_crop.jpg,1,1,1.0,6.0,57.0,1.0,DON'T EAT                                    EAT,1761.862,1745.7317,1733.7006,1,1762.7021
8,3,True,right,approach,neg,insect31_crop.jpg,1,1,1.0,7.0,57.0,1.0,DON'T EAT                                    EAT,1763.8804,1745.7317,1733.7006,2,1764.6135
9,3,False,right,avoid,neg,fungus33_crop.jpg,1,1,1.0,8.0,57.0,1.0,DON'T EAT                                    EAT,1765.8988,1745.7317,1733.7006,1,1766.6409
10,3,True,right,approach,pos,cake4_crop.jpg,1,1,1.0,9.0,57.0,1.0,DON'T EAT                                    EAT,1767.9171,1745.7317,1733.7006,2,1768.6528
11,1,False,left,avoid,neg,fungus4_crop.jpg,1,2,1.0,10.0,57.0,2.0,DON'T EAT                                    EAT,1785.9487,1781.9286,1733.7006,1,1786.8402
12,1,True,left,approach,pos,cake15_crop.jpg,1,2,1.0,11.0,57.0,2.0,DON'T EAT                                    EAT,1787.967,1781.9286,1733.7006,2,1788.721
13,1,False,left,avoid,neg,fungus22_crop.jpg,1,2,1.0,12.0,57.0,2.0,DON'T EAT                                    EAT,1789.9855,1781.9286,1733.7006,1,1790.6974
14,1,False,left,avoid,neg,fungus2_crop.jpg,1,2,1.0,13.0,57.0,2.0,DON'T EAT                                    EAT,1792.0034,1781.9286,1733.7006,1,1792.7896
15,1,False,left,avoid,neg,fungus29_crop.jpg,1,2,1.0,14.0,57.0,2.0,DON'T EAT                                    EAT,1794.0221,1781.9286,1733.7006,1,1794.8082
16,1,False,left,avoid,neg,fungus6_crop.jpg,1,2,1.0,15.0,57.0,2.0,DON'T EAT                                    EAT,1796.0405,1781.9286,1733.7006,1,1796.681
17,1,True,left,approach,neg,insect31_crop.jpg,1,2,1.0,16.0,57.0,2.0,DON'T EAT                                    EAT,1798.0587,1781.9286,1733.7006,2,1798.7599
18,1,False,left,avoid,neg,fungus24_crop.jpg,1,2,1.0,17.0,57.0,2.0,DON'T EAT                                    EAT,1800.0771,1781.9286,1733.7006,1,1800.7059
19,1,False,left,avoid,neg,fungus35_crop.jpg,1,2,1.0,18.0,57.0,2.0,DON'T EAT                                    EAT,1802.0955,1781.9286,1733.7006,1,1802.7875
20,1,False,left,avoid,neg,fungus33_crop.jpg,1,2,1.0,19.0,57.0,2.0,DON'T EAT                                    EAT,1804.1133,1781.9286,1733.7006,1,1804.8574
21,2,True,left,avoid,neg,fungus18_crop.jpg,1,3,1.0,20.0,57.0,3.0,DON'T EAT                                    EAT,1823.4298,1819.4098,1733.7006,1,1824.238
22,2,False,left,approach,neg,insect39_crop.jpg,1,3,1.0,21.0,57.0,3.0,DON'T EAT                                    EAT,1825.4476,1819.4098,1733.7006,2,1826.2332
23,2,False,left,approach,neg,insect3_crop.jpg,1,3,1.0,22.0,57.0,3.0,DON'T EAT                                    EAT,1827.4661,1819.4098,1733.7006,2,1828.1748
24,2,False,left,approach,neg,insect25_crop.jpg,1,3,1.0,23.0,57.0,3.0,DON'T EAT                                    EAT,1829.485,1819.4098,1733.7006,2,1830.1981
25,2,False,left,approach,neg,insect14_crop.jpg,1,3,1.0,24.0,57.0,3.0,DON'T EAT                                    EAT,1831.5027,1819.4098,1733.7006,2,1832.067
26,2,True,left,avoid,pos,meat39_crop.jpg,1,3,1.0,25.0,57.0,3.0,DON'T EAT                                    EAT,1833.5216,1819.4098,1733.7006,1,1834.7878
27,2,False,left,approach,neg,insect27_crop.jpg,1,3,1.0,26.0,57.0,3.0,DON'T EAT                                    EAT,1835.5399,1819.4098,1733.7006,2,1836.6099
28,2,False,left,approach,neg,insect19_crop.jpg,1,3,1.0,27.0,57.0,3.0,DON'T EAT                                    EAT,1837.5576,1819.4098,1733.7006,2,1838.4143
29,2,False,left,approach,neg,insect17_crop.jpg,1,3,1.0,28.0,57.0,3.0,DON'T EAT                                    EAT,1839.5765,1819.4098,1733.7006,2,1840.1946
30,2,False,left,approach,neg,insect23_crop.jpg,1,3,1.0,29.0,57.0,3.0,DON'T EAT                                    EAT,1841.5948,1819.4098,1733.7006,2,1842.579
31,2,False,right,approach,pos,cake32_crop.jpg,1,4,1.0,30.0,57.0,4.0,DON'T EAT                                    EAT,1858.3755,1854.355,1733.7006,2,1859.3923
32,2,True,right,avoid,pos,meat17_crop.jpg,1,4,1.0,31.0,57.0,4.0,DON'T EAT                                    EAT,1860.3934,1854.355,1733.7006,1,1861.7566
33,2,False,right,approach,pos,cake14_crop.jpg,1,4,1.0,32.0,57.0,4.0,DON'T EAT                                    EAT,1862.4116,1854.355,1733.7006,2,1863.2053
34,2,False,right,approach,pos,cake30_crop.jpg,1,4,1.0,33.0,57.0,4.0,DON'T EAT                                    EAT,1864.4305,1854.355,1733.7006,2,1865.2058
35,2,True,right,avoid,neg,fungus36_crop.jpg,1,4,1.0,34.0,57.0,4.0,DON'T EAT                                    EAT,1866.4489,1854.355,1733.7006,1,1867.2345
36,2,False,right,approach,pos,cake7_crop.jpg,1,4,1.0,35.0,57.0,4.0,DON'T EAT                                    EAT,1868.4673,1854.355,1733.7006,2,1869.1583
37,2,False,right,approach,pos,cake15_crop.jpg,1,4,1.0,36.0,57.0,4.0,DON'T EAT                                    EAT,1870.4851,1854.355,1733.7006,1,1871.4926
38,2,False,right,approach,pos,cake38_crop.jpg,1,4,1.0,37.0,57.0,4.0,DON'T EAT                                    EAT,1872.504,1854.355,1733.7006,2,1873.2168
39,2,False,right,approach,pos,cake27_crop.jpg,1,4,1.0,38.0,57.0,4.0,DON'T EAT                                    EAT,1874.5219,1854.355,1733.7006,2,1875.1869
40,2,False,right,approach,pos,cake24_crop.jpg,1,4,1.0,39.0,57.0,4.0,DON'T EAT                                    EAT,1876.5405,1854.355,1733.7006,2,1877.117
41,2,False,right,avoid,neg,fungus39_crop.jpg,1,5,1.0,40.0,57.0,5.0,DON'T EAT                                    EAT,1895.9398,1891.9362,1733.7006,1,1897.1372
42,2,False,right,avoid,neg,fungus38_crop.jpg,1,5,1.0,41.0,57.0,5.0,DON'T EAT                                    EAT,1897.9584,1891.9362,1733.7006,1,1898.7754
43,2,False,right,avoid,neg,fungus31_crop.jpg,1,5,1.0,42.0,57.0,5.0,DON'T EAT                                    EAT,1899.9768,1891.9362,1733.7006,1,1900.9098
44,2,True,right,approach,neg,insect26_crop.jpg,1,5,1.0,43.0,57.0,5.0,DON'T EAT                                    EAT,1901.995,1891.9362,1733.7006,2,1902.7921
45,2,False,right,avoid,neg,fungus20_crop.jpg,1,5,1.0,44.0,57.0,5.0,DON'T EAT                                    EAT,1904.0134,1891.9362,1733.7006,1,1904.7788
46,2,False,right,avoid,neg,fungus5_crop.jpg,1,5,1.0,45.0,57.0,5.0,DON'T EAT                                    EAT,1906.0317,1891.9362,1733.7006,1,1906.9858
47,2,False,right,avoid,neg,fungus37_crop.jpg,1,5,1.0,46.0,57.0,5.0,DON'T EAT                                    EAT,1908.0502,1891.9362,1733.7006,1,1909.1067
48,2,False,right,avoid,neg,fungus30_crop.jpg,1,5,1.0,47.0,57.0,5.0,DON'T EAT                                    EAT,1910.0682,1891.9362,1733.7006,1,1910.8439
49,2,True,right,approach,pos,cake6_crop.jpg,1,5,1.0,48.0,57.0,5.0,DON'T EAT                                    EAT,1912.0868,1891.9362,1733.7006,2,1912.8198
50,2,False,right,avoid,neg,fungus1_crop.jpg,1,5,1.0,49.0,57.0,5.0,DON'T EAT                                    EAT,1914.1051,1891.9362,1733.7006,1,1914.8695
51,2,True,right,avoid,pos,meat23_crop.jpg,1,6,1.0,50.0,57.0,6.0,DON'T EAT                                    EAT,1930.2686,1926.2483,1733.7006,1,1931.486
52,2,False,right,approach,neg,insect18_crop.jpg,1,6,1.0,51.0,57.0,6.0,DON'T EAT                                    EAT,1932.2863,1926.2483,1733.7006,2,1933.0819
53,2,False,right,approach,neg,insect32_crop.jpg,1,6,1.0,52.0,57.0,6.0,DON'T EAT                                    EAT,1934.3052,1926.2483,1733.7006,2,1934.9226
54,2,False,right,approach,neg,insect8_crop.jpg,1,6,1.0,53.0,57.0,6.0,DON'T EAT                                    EAT,1936.3232,1926.2483,1733.7006,2,1936.9323
55,2,False,right,approach,neg,insect14_crop.jpg,1,6,1.0,54.0,57.0,6.0,DON'T EAT                                    EAT,1938.3419,1926.2483,1733.7006,2,1938.8873
56,2,False,right,approach,neg,insect17_crop.jpg,1,6,1.0,55.0,57.0,6.0,DON'T EAT                                    EAT,1940.3601,1926.2483,1733.7006,2,1940.895
57,2,False,right,approach,neg,insect25_crop.jpg,1,6,1.0,56.0,57.0,6.0,DON'T EAT                                    EAT,1942.3787,1926.2483,1733.7006,2,1942.8396
58,2,True,right,avoid,neg,fungus3_crop.jpg,1,6,1.0,57.0,57.0,6.0,DON'T EAT                                    EAT,1944.3967,1926.2483,1733.7006,1,1945.1627
59,2,False,right,approach,neg,insect10_crop.jpg,1,6,1.0,58.0,57.0,6.0,DON'T EAT                                    EAT,1946.4153,1926.2483,1733.7006,2,1947.2139
60,2,False,right,approach,neg,insect28_crop.jpg,1,6,1.0,59.0,57.0,6.0,DON'T EAT                                    EAT,1948.4333,1926.2483,1733.7006,2,1949.1879
61,1,False,right,approach,neg,insect21_crop.jpg,1,7,1.0,60.0,57.0,7.0,DON'T EAT                                    EAT,1966.1984,1962.1781,1733.7006,2,1967.2245
62,1,False,right,approach,neg,insect9_crop.jpg,1,7,1.0,61.0,57.0,7.0,DON'T EAT                                    EAT,1968.2169,1962.1781,1733.7006,2,1969.0254
63,1,True,right,avoid,neg,fungus40_crop.jpg,1,7,1.0,62.0,57.0,7.0,DON'T EAT                                    EAT,1970.2351,1962.1781,1733.7006,1,1971.2394
64,1,False,right,approach,neg,insect4_crop.jpg,1,7,1.0,63.0,57.0,7.0,DON'T EAT                                    EAT,1972.2533,1962.1781,1733.7006,2,1972.9349
65,1,False,right,approach,neg,insect30_crop.jpg,1,7,1.0,64.0,57.0,7.0,DON'T EAT                                    EAT,1974.2717,1962.1781,1733.7006,2,1975.036
66,1,False,right,approach,neg,insect16_crop.jpg,1,7,1.0,65.0,57.0,7.0,DON'T EAT                                    EAT,1976.29,1962.1781,1733.7006,2,1976.9796
67,1,False,right,approach,neg,insect3_crop.jpg,1,7,1.0,66.0,57.0,7.0,DON'T EAT                                    EAT,1978.3085,1962.1781,1733.7006,2,1978.9589
68,1,False,right,approach,neg,insect2_crop.jpg,1,7,1.0,67.0,57.0,7.0,DON'T EAT                                    EAT,1980.3265,1962.1781,1733.7006,2,1980.9136
69,1,True,right,avoid,pos,meat28_crop.jpg,1,7,1.0,68.0,57.0,7.0,DON'T EAT                                    EAT,1982.3451,1962.1781,1733.7006,1,1983.2147
70,1,False,right,approach,neg,insect36_crop.jpg,1,7,1.0,69.0,57.0,7.0,DON'T EAT                                    EAT,1984.3633,1962.1781,1733.7006,2,1985.4434
71,1,False,left,avoid,pos,meat19_crop.jpg,1,8,1.0,70.0,57.0,8.0,DON'T EAT                                    EAT,2002.4451,1998.4253,1733.7006,1,2003.3472
72,1,False,left,avoid,pos,meat14_crop.jpg,1,8,1.0,71.0,57.0,8.0,DON'T EAT                                    EAT,2004.4635,1998.4253,1733.7006,1,2005.2599
73,1,False,left,avoid,pos,meat16_crop.jpg,1,8,1.0,72.0,57.0,8.0,DON'T EAT                                    EAT,2006.4819,1998.4253,1733.7006,1,2007.1538
74,1,False,left,avoid,pos,meat36_crop.jpg,1,8,1.0,73.0,57.0,8.0,DON'T EAT                                    EAT,2008.5002,1998.4253,1733.7006,1,2009.0885
75,1,False,left,avoid,pos,meat38_crop.jpg,1,8,1.0,74.0,57.0,8.0,DON'T EAT                                    EAT,2010.5186,1998.4253,1733.7006,1,2011.0938
76,1,False,left,avoid,pos,meat22_crop.jpg,1,8,1.0,75.0,57.0,8.0,DON'T EAT                                    EAT,2012.5366,1998.4253,1733.7006,1,2013.214
77,1,True,left,approach,neg,insect33_crop.jpg,1,8,1.0,76.0,57.0,8.0,DON'T EAT                                    EAT,2014.5552,1998.4253,1733.7006,2,2015.279
78,1,False,left,avoid,pos,meat27_crop.jpg,1,8,1.0,77.0,57.0,8.0,DON'T EAT                                    EAT,2016.5732,1998.4253,1733.7006,1,2017.328
79,1,True,left,approach,pos,cake8_crop.jpg,1,8,1.0,78.0,57.0,8.0,DON'T EAT                                    EAT,2018.5919,1998.4253,1733.7006,2,2019.3353
80,1,False,left,avoid,pos,meat37_crop.jpg,1,8,1.0,79.0,57.0,8.0,DON'T EAT                                    EAT,2020.6102,1998.4253,1733.7006,1,2021.3428
81,0,True,right,approach,pos,cake9_crop.jpg,2,9,1.0,80.0,57.0,9.0,DON'T EAT                                    EAT,2364.112,2360.0918,2349.0005,2,2365.044
82,0,False,right,avoid,neg,fungus2_crop.jpg,2,9,1.0,81.0,57.0,9.0,DON'T EAT                                    EAT,2366.1304,2360.0918,2349.0005,1,2366.8965
83,0,False,right,avoid,neg,fungus7_crop.jpg,2,9,1.0,82.0,57.0,9.0,DON'T EAT                                    EAT,2368.1482,2360.0918,2349.0005,1,2369.0178
84,0,False,right,avoid,neg,fungus24_crop.jpg,2,9,1.0,83.0,57.0,9.0,DON'T EAT                                    EAT,2370.1672,2360.0918,2349.0005,1,2370.827
85,0,False,right,avoid,neg,fungus17_crop.jpg,2,9,1.0,84.0,57.0,9.0,DON'T EAT                                    EAT,2372.1855,2360.0918,2349.0005,1,2372.8584
86,0,False,right,avoid,neg,fungus35_crop.jpg,2,9,1.0,85.0,57.0,9.0,DON'T EAT                                    EAT,2374.204,2360.0918,2349.0005,1,2374.99
87,0,False,right,avoid,neg,fungus13_crop.jpg,2,9,1.0,86.0,57.0,9.0,DON'T EAT                                    EAT,2376.2224,2360.0918,2349.0005,1,2376.9495
88,0,False,right,avoid,neg,fungus21_crop.jpg,2,9,1.0,87.0,57.0,9.0,DON'T EAT                                    EAT,2378.24,2360.0918,2349.0005,1,2378.8892
89,0,True,right,approach,neg,insect39_crop.jpg,2,9,1.0,88.0,57.0,9.0,DON'T EAT                                    EAT,2380.259,2360.0918,2349.0005,2,2381.0017
90,0,False,right,avoid,neg,fungus22_crop.jpg,2,9,1.0,89.0,57.0,9.0,DON'T EAT                                    EAT,2382.2773,2360.0918,2349.0005,1,2382.9268
91,1,False,right,avoid,pos,meat7_crop.jpg,2,10,1.0,90.0,57.0,10.0,DON'T EAT                                    EAT,2401.0596,2397.0396,2349.0005,1,2402.1375
92,1,True,right,approach,neg,insect38_crop.jpg,2,10,1.0,91.0,57.0,10.0,DON'T EAT                                    EAT,2403.078,2397.0396,2349.0005,2,2403.8647
93,1,False,right,avoid,pos,meat5_crop.jpg,2,10,1.0,92.0,57.0,10.0,DON'T EAT                                    EAT,2405.0962,2397.0396,2349.0005,1,2405.797
94,1,False,right,avoid,pos,meat3_crop.jpg,2,10,1.0,93.0,57.0,10.0,DON'T EAT                                    EAT,2407.1145,2397.0396,2349.0005,1,2407.8962
95,1,False,right,avoid,pos,meat32_crop.jpg,2,10,1.0,94.0,57.0,10.0,DON'T EAT                                    EAT,2409.1328,2397.0396,2349.0005,1,2409.9292
96,1,False,right,avoid,pos,meat33_crop.jpg,2,10,1.0,95.0,57.0,10.0,DON'T EAT                                    EAT,2411.1514,2397.0396,2349.0005,1,2412.1074
97,1,False,right,avoid,pos,meat22_crop.jpg,2,10,1.0,96.0,57.0,10.0,DON'T EAT                                    EAT,2413.1692,2397.0396,2349.0005,1,2413.9534
98,1,False,right,avoid,pos,meat37_crop.jpg,2,10,1.0,97.0,57.0,10.0,DON'T EAT                                    EAT,2415.188,2397.0396,2349.0005,1,2415.9827
99,1,False,right,avoid,pos,meat11_crop.jpg,2,10,1.0,98.0,57.0,10.0,DON'T EAT                                    EAT,2417.206,2397.0396,2349.0005,1,2418.0205
100,1,True,right,approach,pos,cake8_crop.jpg,2,10,1.0,99.0,57.0,10.0,DON'T EAT                                    EAT,2419.2246,2397.0396,2349.0005,2,2420.0532
101,3,False,left,avoid,neg,fungus8_crop.jpg,2,11,1.0,100.0,57.0,11.0,DON'T EAT                                    EAT,2437.8728,2433.853,2349.0005,1,2438.7488
102,3,False,left,avoid,neg,fungus19_crop.jpg,2,11,1.0,101.0,57.0,11.0,DON'T EAT                                    EAT,2439.8918,2433.853,2349.0005,1,2440.5618
103,3,False,left,avoid,neg,fungus37_crop.jpg,2,11,1.0,102.0,57.0,11.0,DON'T EAT                                    EAT,2441.9102,2433.853,2349.0005,1,2442.614
104,3,True,left,approach,pos,cake10_crop.jpg,2,11,1.0,103.0,57.0,11.0,DON'T EAT                                    EAT,2443.9285,2433.853,2349.0005,2,2444.8523
105,3,False,left,avoid,neg,fungus1_crop.jpg,2,11,1.0,104.0,57.0,11.0,DON'T EAT                                    EAT,2445.9468,2433.853,2349.0005,1,2446.5967
106,3,True,left,approach,neg,insect7_crop.jpg,2,11,1.0,105.0,57.0,11.0,DON'T EAT                                    EAT,2447.9646,2433.853,2349.0005,2,2448.6328
107,3,False,left,avoid,neg,fungus34_crop.jpg,2,11,1.0,106.0,57.0,11.0,DON'T EAT                                    EAT,2449.9832,2433.853,2349.0005,1,2450.7283
108,3,False,left,avoid,neg,fungus17_crop.jpg,2,11,1.0,107.0,57.0,11.0,DON'T EAT                                    EAT,2452.002,2433.853,2349.0005,1,2452.6836
109,3,False,left,avoid,neg,fungus7_crop.jpg,2,11,1.0,108.0,57.0,11.0,DON'T EAT                                    EAT,2454.02,2433.853,2349.0005,1,2454.6707
110,3,False,left,avoid,neg,fungus16_crop.jpg,2,11,1.0,109.0,57.0,11.0,DON'T EAT                                    EAT,2456.0386,2433.853,2349.0005,1,2456.7627
111,1,False,left,approach,neg,insect30_crop.jpg,2,12,1.0,110.0,57.0,12.0,DON'T EAT                                    EAT,2472.235,2468.2314,2349.0005,2,2473.01
112,1,False,left,approach,neg,insect9_crop.jpg,2,12,1.0,111.0,57.0,12.0,DON'T EAT                                    EAT,2474.2532,2468.2314,2349.0005,2,2474.9019
113,1,False,left,approach,neg,insect8_crop.jpg,2,12,1.0,112.0,57.0,12.0,DON'T EAT                                    EAT,2476.2717,2468.2314,2349.0005,2,2476.933
114,1,True,left,avoid,neg,fungus11_crop.jpg,2,12,1.0,113.0,57.0,12.0,DON'T EAT                                    EAT,2478.2896,2468.2314,2349.0005,1,2479.085
115,1,False,left,approach,neg,insect26_crop.jpg,2,12,1.0,114.0,57.0,12.0,DON'T EAT                                    EAT,2480.3086,2468.2314,2349.0005,2,2481.0
116,1,True,left,avoid,pos,meat35_crop.jpg,2,12,1.0,115.0,57.0,12.0,DON'T EAT                                    EAT,2482.327,2468.2314,2349.0005,1,2483.1848
117,1,False,left,approach,neg,insect21_crop.jpg,2,12,1.0,116.0,57.0,12.0,DON'T EAT                                    EAT,2484.3452,2468.2314,2349.0005,1,2485.3018
118,1,False,left,approach,neg,insect15_crop.jpg,2,12,1.0,117.0,57.0,12.0,DON'T EAT                                    EAT,2486.3633,2468.2314,2349.0005,1,2487.0142
119,1,False,left,approach,neg,insect6_crop.jpg,2,12,1.0,118.0,57.0,12.0,DON'T EAT                                    EAT,2488.382,2468.2314,2349.0005,2,2489.4314
120,1,False,left,approach,neg,insect29_crop.jpg,2,12,1.0,119.0,57.0,12.0,DON'T EAT                                    EAT,2490.4004,2468.2314,2349.0005,2,2491.072
121,3,True,left,avoid,pos,meat32_crop.jpg,2,13,1.0,120.0,57.0,13.0,DON'T EAT                                    EAT,2509.9834,2505.9634,2349.0005,1,2510.8542
122,3,False,left,approach,neg,insect36_crop.jpg,2,13,1.0,121.0,57.0,13.0,DON'T EAT                                    EAT,2512.0017,2505.9634,2349.0005,2,2512.9363
123,3,False,left,approach,neg,insect13_crop.jpg,2,13,1.0,122.0,57.0,13.0,DON'T EAT                                    EAT,2514.02,2505.9634,2349.0005,2,2514.689
124,3,False,left,approach,neg,insect28_crop.jpg,2,13,1.0,123.0,57.0,13.0,DON'T EAT                                    EAT,2516.0383,2505.9634,2349.0005,2,2516.6472
125,3,False,left,approach,neg,insect11_crop.jpg,2,13,1.0,124.0,57.0,13.0,DON'T EAT                                    EAT,2518.0562,2505.9634,2349.0005,2,2518.577
126,3,False,left,approach,neg,insect16_crop.jpg,2,13,1.0,125.0,57.0,13.0,DON'T EAT                                    EAT,2520.075,2505.9634,2349.0005,2,2520.526
127,3,True,left,avoid,neg,fungus28_crop.jpg,2,13,1.0,126.0,57.0,13.0,DON'T EAT                                    EAT,2522.0933,2505.9634,2349.0005,1,2522.8384
128,3,False,left,approach,neg,insect38_crop.jpg,2,13,1.0,127.0,57.0,13.0,DON'T EAT                                    EAT,2524.1116,2505.9634,2349.0005,2,2524.752
129,3,False,left,approach,neg,insect34_crop.jpg,2,13,1.0,128.0,57.0,13.0,DON'T EAT                                    EAT,2526.1301,2505.9634,2349.0005,2,2526.8218
130,3,False,left,approach,neg,insect24_crop.jpg,2,13,1.0,129.0,57.0,13.0,DON'T EAT                                    EAT,2528.1477,2505.9634,2349.0005,2,2528.859
131,2,False,left,approach,pos,cake40_crop.jpg,2,14,1.0,130.0,57.0,14.0,DON'T EAT                                    EAT,2545.079,2541.0586,2349.0005,2,2545.9175
132,2,False,left,approach,pos,cake24_crop.jpg,2,14,1.0,131.0,57.0,14.0,DON'T EAT                                    EAT,2547.0974,2541.0586,2349.0005,2,2547.7783
133,2,True,left,avoid,pos,meat8_crop.jpg,2,14,1.0,132.0,57.0,14.0,DON'T EAT                                    EAT,2549.1157,2541.0586,2349.0005,1,2550.0479
134,2,False,left,approach,pos,cake3_crop.jpg,2,14,1.0,133.0,57.0,14.0,DON'T EAT                                    EAT,2551.1338,2541.0586,2349.0005,2,2551.837
135,2,False,left,approach,pos,cake36_crop.jpg,2,14,1.0,134.0,57.0,14.0,DON'T EAT                                    EAT,2553.1523,2541.0586,2349.0005,2,2554.0327
136,2,False,left,approach,pos,cake22_crop.jpg,2,14,1.0,135.0,57.0,14.0,DON'T EAT                                    EAT,2555.171,2541.0586,2349.0005,2,2555.8525
137,2,False,left,approach,pos,cake23_crop.jpg,2,14,1.0,136.0,57.0,14.0,DON'T EAT                                    EAT,2557.1895,2541.0586,2349.0005,2,2557.8047
138,2,False,left,approach,pos,cake1_crop.jpg,2,14,1.0,137.0,57.0,14.0,DON'T EAT                                    EAT,2559.207,2541.0586,2349.0005,2,2559.837
139,2,True,left,avoid,neg,fungus31_crop.jpg,2,14,1.0,138.0,57.0,14.0,DON'T EAT                                    EAT,2561.2256,2541.0586,2349.0005,1,2562.1807
140,2,False,left,approach,pos,cake33_crop.jpg,2,14,1.0,139.0,57.0,14.0,DON'T EAT                                    EAT,2563.2441,2541.0586,2349.0005,2,2563.9985
141,0,False,left,approach,neg,insect32_crop.jpg,2,15,1.0,140.0,57.0,15.0,DON'T EAT                                    EAT,2582.1099,2578.0894,2349.0005,2,2583.0217
142,0,True,left,avoid,pos,meat6_crop.jpg,2,15,1.0,141.0,57.0,15.0,DON'T EAT                                    EAT,2584.1282,2578.0894,2349.0005,1,2584.9573
143,0,False,left,approach,neg,insect12_crop.jpg,2,15,1.0,142.0,57.0,15.0,DON'T EAT                                    EAT,2586.1462,2578.0894,2349.0005,2,2586.89
144,0,False,left,approach,neg,insect20_crop.jpg,2,15,1.0,143.0,57.0,15.0,DON'T EAT                                    EAT,2588.1643,2578.0894,2349.0005,2,2588.9592
145,0,False,left,approach,neg,insect4_crop.jpg,2,15,1.0,144.0,57.0,15.0,DON'T EAT                                    EAT,2590.183,2578.0894,2349.0005,2,2590.6855
146,0,False,left,approach,neg,insect40_crop.jpg,2,15,1.0,145.0,57.0,15.0,DON'T EAT                                    EAT,2592.2012,2578.0894,2349.0005,2,2592.9666
147,0,False,left,approach,neg,insect5_crop.jpg,2,15,1.0,146.0,57.0,15.0,DON'T EAT                                    EAT,2594.22,2578.0894,2349.0005,2,2594.8284
148,0,True,left,avoid,neg,fungus20_crop.jpg,2,15,1.0,147.0,57.0,15.0,DON'T EAT                                    EAT,2596.2383,2578.0894,2349.0005,1,2597.5183
149,0,False,left,approach,neg,insect22_crop.jpg,2,15,1.0,148.0,57.0,15.0,DON'T EAT                                    EAT,2598.2559,2578.0894,2349.0005,2,2599.0623
150,0,False,left,approach,neg,insect2_crop.jpg,2,15,1.0,149.0,57.0,15.0,DON'T EAT                                    EAT,2600.275,2578.0894,2349.0005,2,2601.229
151,0,False,left,approach,pos,cake28_crop.jpg,2,16,1.0,150.0,57.0,16.0,DON'T EAT                                    EAT,2619.474,2615.454,2349.0005,2,2620.3333
152,0,False,left,approach,pos,cake37_crop.jpg,2,16,1.0,151.0,57.0,16.0,DON'T EAT                                    EAT,2621.4924,2615.454,2349.0005,2,2622.2346
153,0,False,left,approach,pos,cake30_crop.jpg,2,16,1.0,152.0,57.0,16.0,DON'T EAT                                    EAT,2623.511,2615.454,2349.0005,2,2624.024
154,0,False,left,approach,pos,cake39_crop.jpg,2,16,1.0,153.0,57.0,16.0,DON'T EAT                                    EAT,2625.5293,2615.454,2349.0005,2,2626.1895
155,0,True,left,avoid,pos,meat18_crop.jpg,2,16,1.0,154.0,57.0,16.0,DON'T EAT                                    EAT,2627.5476,2615.454,2349.0005,1,2628.6108
156,0,False,left,approach,pos,cake25_crop.jpg,2,16,1.0,155.0,57.0,16.0,DON'T EAT                                    EAT,2629.566,2615.454,2349.0005,2,2630.2686
157,0,True,left,avoid,neg,fungus30_crop.jpg,2,16,1.0,156.0,57.0,16.0,DON'T EAT                                    EAT,2631.5842,2615.454,2349.0005,1,2632.6523
158,0,False,left,approach,pos,cake6_crop.jpg,2,16,1.0,157.0,57.0,16.0,DON'T EAT                                    EAT,2633.6023,2615.454,2349.0005,2,2634.4116
159,0,False,left,approach,pos,cake17_crop.jpg,2,16,1.0,158.0,57.0,16.0,DON'T EAT                                    EAT,2635.6208,2615.454,2349.0005,2,2636.251
160,0,False,left,approach,pos,cake21_crop.jpg,2,16,1.0,159.0,57.0,16.0,DON'T EAT                                    EAT,2637.6394,2615.454,2349.0005,2,2638.4746
161,3,False,left,avoid,pos,meat12_crop.jpg,3,17,1.0,160.0,57.0,17.0,DON'T EAT                                    EAT,2829.5486,2825.528,2813.7815,1,2830.4607
162,3,True,left,approach,pos,cake12_crop.jpg,3,17,1.0,161.0,57.0,17.0,DON'T EAT                                    EAT,2831.567,2825.528,2813.7815,2,2832.4922
163,3,False,left,avoid,pos,meat7_crop.jpg,3,17,1.0,162.0,57.0,17.0,DON'T EAT                                    EAT,2833.5852,2825.528,2813.7815,1,2834.2239
164,3,False,left,avoid,pos,meat21_crop.jpg,3,17,1.0,163.0,57.0,17.0,DON'T EAT                                    EAT,2835.6035,2825.528,2813.7815,1,2836.2527
165,3,False,left,avoid,pos,meat11_crop.jpg,3,17,1.0,164.0,57.0,17.0,DON'T EAT                                    EAT,2837.622,2825.528,2813.7815,1,2838.23
166,3,False,left,avoid,pos,meat17_crop.jpg,3,17,1.0,165.0,57.0,17.0,DON'T EAT                                    EAT,2839.6404,2825.528,2813.7815,1,2840.301
167,3,False,left,avoid,pos,meat24_crop.jpg,3,17,1.0,166.0,57.0,17.0,DON'T EAT                                    EAT,2841.6584,2825.528,2813.7815,1,2842.2246
168,3,True,left,approach,neg,insect35_crop.jpg,3,17,1.0,167.0,57.0,17.0,DON'T EAT                                    EAT,2843.677,2825.528,2813.7815,2,2844.4963
169,3,False,left,avoid,pos,meat5_crop.jpg,3,17,1.0,168.0,57.0,17.0,DON'T EAT                                    EAT,2845.6953,2825.528,2813.7815,1,2846.387
170,3,False,left,avoid,pos,meat33_crop.jpg,3,17,1.0,169.0,57.0,17.0,DON'T EAT                                    EAT,2847.7134,2825.528,2813.7815,1,2848.5588
171,1,True,left,avoid,neg,fungus3_crop.jpg,3,18,1.0,170.0,57.0,18.0,DON'T EAT                                    EAT,2865.862,2861.8423,2813.7815,1,2867.7297
172,1,False,left,approach,pos,cake2_crop.jpg,3,18,1.0,171.0,57.0,18.0,DON'T EAT                                    EAT,2867.8804,2861.8423,2813.7815,2,2868.6204
173,1,False,left,approach,pos,cake14_crop.jpg,3,18,1.0,172.0,57.0,18.0,DON'T EAT                                    EAT,2869.899,2861.8423,2813.7815,2,2870.5059
174,1,False,left,approach,pos,cake32_crop.jpg,3,18,1.0,173.0,57.0,18.0,DON'T EAT                                    EAT,2871.9172,2861.8423,2813.7815,2,2872.7764
175,1,False,left,approach,pos,cake34_crop.jpg,3,18,1.0,174.0,57.0,18.0,DON'T EAT                                    EAT,2873.9355,2861.8423,2813.7815,2,2874.8142
176,1,False,left,approach,pos,cake9_crop.jpg,3,18,1.0,175.0,57.0,18.0,DON'T EAT                                    EAT,2875.9539,2861.8423,2813.7815,2,2876.6057
177,1,False,left,approach,pos,cake38_crop.jpg,3,18,1.0,176.0,57.0,18.0,DON'T EAT                                    EAT,2877.9722,2861.8423,2813.7815,2,2878.628
178,1,False,left,approach,pos,cake13_crop.jpg,3,18,1.0,177.0,57.0,18.0,DON'T EAT                                    EAT,2879.9905,2861.8423,2813.7815,2,2880.703
179,1,False,left,approach,pos,cake27_crop.jpg,3,18,1.0,178.0,57.0,18.0,DON'T EAT                                    EAT,2882.0088,2861.8423,2813.7815,2,2882.5964
180,1,True,left,avoid,pos,meat20_crop.jpg,3,18,1.0,179.0,57.0,18.0,DON'T EAT                                    EAT,2884.0273,2861.8423,2813.7815,1,2884.8025
181,1,False,right,approach,pos,cake29_crop.jpg,3,19,1.0,180.0,57.0,19.0,DON'T EAT                                    EAT,2900.324,2896.304,2813.7815,2,2901.1716
182,1,True,right,avoid,neg,fungus12_crop.jpg,3,19,1.0,181.0,57.0,19.0,DON'T EAT                                    EAT,2902.3423,2896.304,2813.7815,1,2903.0872
183,1,False,right,approach,pos,cake22_crop.jpg,3,19,1.0,182.0,57.0,19.0,DON'T EAT                                    EAT,2904.3608,2896.304,2813.7815,2,2905.094
184,1,False,right,approach,pos,cake1_crop.jpg,3,19,1.0,183.0,57.0,19.0,DON'T EAT                                    EAT,2906.3792,2896.304,2813.7815,2,2907.039
185,1,False,right,approach,pos,cake25_crop.jpg,3,19,1.0,184.0,57.0,19.0,DON'T EAT                                    EAT,2908.397,2896.304,2813.7815,2,2909.0325
186,1,True,right,avoid,pos,meat39_crop.jpg,3,19,1.0,185.0,57.0,19.0,DON'T EAT                                    EAT,2910.4158,2896.304,2813.7815,1,2911.2542
187,1,False,right,approach,pos,cake40_crop.jpg,3,19,1.0,186.0,57.0,19.0,DON'T EAT                                    EAT,2912.434,2896.304,2813.7815,2,2913.1587
188,1,False,right,approach,pos,cake37_crop.jpg,3,19,1.0,187.0,57.0,19.0,DON'T EAT                                    EAT,2914.4524,2896.304,2813.7815,2,2915.2488
189,1,False,right,approach,pos,cake20_crop.jpg,3,19,1.0,188.0,57.0,19.0,DON'T EAT                                    EAT,2916.4705,2896.304,2813.7815,2,2917.3088
190,1,False,right,approach,pos,cake21_crop.jpg,3,19,1.0,189.0,57.0,19.0,DON'T EAT                                    EAT,2918.4888,2896.304,2813.7815,2,2919.125
191,0,False,left,avoid,neg,fungus10_crop.jpg,3,20,1.0,190.0,57.0,20.0,DON'T EAT                                    EAT,2935.036,2931.016,2813.7815,1,2936.0952
192,0,False,left,avoid,neg,fungus36_crop.jpg,3,20,1.0,191.0,57.0,20.0,DON'T EAT                                    EAT,2937.0547,2931.016,2813.7815,1,2937.6921
193,0,False,left,avoid,neg,fungus27_crop.jpg,3,20,1.0,192.0,57.0,20.0,DON'T EAT                                    EAT,2939.0728,2931.016,2813.7815,1,2939.5547
194,0,False,left,avoid,neg,fungus40_crop.jpg,3,20,1.0,193.0,57.0,20.0,DON'T EAT                                    EAT,2941.0913,2931.016,2813.7815,1,2941.6997
195,0,False,left,avoid,neg,fungus5_crop.jpg,3,20,1.0,194.0,57.0,20.0,DON'T EAT                                    EAT,2943.1096,2931.016,2813.7815,1,2943.9167
196,0,True,left,approach,pos,cake5_crop.jpg,3,20,1.0,195.0,57.0,20.0,DON'T EAT                                    EAT,2945.128,2931.016,2813.7815,2,2945.9038
197,0,True,left,approach,neg,insect1_crop.jpg,3,20,1.0,196.0,57.0,20.0,DON'T EAT                                    EAT,2947.1462,2931.016,2813.7815,1,2947.6807
198,0,False,left,avoid,neg,fungus26_crop.jpg,3,20,1.0,197.0,57.0,20.0,DON'T EAT                                    EAT,2949.1646,2931.016,2813.7815,1,2949.795
199,0,False,left,avoid,neg,fungus38_crop.jpg,3,20,1.0,198.0,57.0,20.0,DON'T EAT                                    EAT,2951.1829,2931.016,2813.7815,1,2951.9788
200,0,False,left,avoid,neg,fungus13_crop.jpg,3,20,1.0,199.0,57.0,20.0,DON'T EAT                                    EAT,2953.2007,2931.016,2813.7815,1,2953.9788
201,1,False,right,avoid,neg,fungus23_crop.jpg,3,21,1.0,200.0,57.0,21.0,DON'T EAT                                    EAT,2972.4175,2968.397,2813.7815,1,2973.257
202,1,True,right,approach,neg,insect15_crop.jpg,3,21,1.0,201.0,57.0,21.0,DON'T EAT                                    EAT,2974.4355,2968.397,2813.7815,2,2975.2642
203,1,False,right,avoid,neg,fungus14_crop.jpg,3,21,1.0,202.0,57.0,21.0,DON'T EAT                                    EAT,2976.4539,2968.397,2813.7815,1,2977.2607
204,1,False,right,avoid,neg,fungus19_crop.jpg,3,21,1.0,203.0,57.0,21.0,DON'T EAT                                    EAT,2978.4717,2968.397,2813.7815,1,2979.4343
205,1,False,right,avoid,neg,fungus27_crop.jpg,3,21,1.0,204.0,57.0,21.0,DON'T EAT                                    EAT,2980.4907,2968.397,2813.7815,1,2981.3909
206,1,False,right,avoid,neg,fungus29_crop.jpg,3,21,1.0,205.0,57.0,21.0,DON'T EAT                                    EAT,2982.5083,2968.397,2813.7815,1,2983.0945
207,1,False,right,avoid,neg,fungus34_crop.jpg,3,21,1.0,206.0,57.0,21.0,DON'T EAT                                    EAT,2984.5273,2968.397,2813.7815,1,2985.0525
208,1,False,right,avoid,neg,fungus18_crop.jpg,3,21,1.0,207.0,57.0,21.0,DON'T EAT                                    EAT,2986.5457,2968.397,2813.7815,1,2987.2068
209,1,False,right,avoid,neg,fungus10_crop.jpg,3,21,1.0,208.0,57.0,21.0,DON'T EAT                                    EAT,2988.5635,2968.397,2813.7815,1,2989.0955
210,1,True,right,approach,pos,cake10_crop.jpg,3,21,1.0,209.0,57.0,21.0,DON'T EAT                                    EAT,2990.5823,2968.397,2813.7815,2,2991.5051
211,3,False,right,approach,neg,insect29_crop.jpg,3,22,1.0,210.0,57.0,22.0,DON'T EAT                                    EAT,3009.6816,3005.6611,2813.7815,2,3010.6125
212,3,False,right,approach,neg,insect27_crop.jpg,3,22,1.0,211.0,57.0,22.0,DON'T EAT                                    EAT,3011.6997,3005.6611,2813.7815,2,3012.413
213,3,True,right,avoid,pos,meat8_crop.jpg,3,22,1.0,212.0,57.0,22.0,DON'T EAT                                    EAT,3013.7183,3005.6611,2813.7815,1,3014.4937
214,3,False,right,approach,neg,insect23_crop.jpg,3,22,1.0,213.0,57.0,22.0,DON'T EAT                                    EAT,3015.7366,3005.6611,2813.7815,2,3016.5007
215,3,False,right,approach,neg,insect34_crop.jpg,3,22,1.0,214.0,57.0,22.0,DON'T EAT                                    EAT,3017.7554,3005.6611,2813.7815,2,3018.4138
216,3,True,right,avoid,neg,fungus6_crop.jpg,3,22,1.0,215.0,57.0,22.0,DON'T EAT                                    EAT,3019.7732,3005.6611,2813.7815,1,3020.4863
217,3,False,right,approach,neg,insect5_crop.jpg,3,22,1.0,216.0,57.0,22.0,DON'T EAT                                    EAT,3021.7915,3005.6611,2813.7815,2,3023.019
218,3,False,right,approach,neg,insect22_crop.jpg,3,22,1.0,217.0,57.0,22.0,DON'T EAT                                    EAT,3023.81,3005.6611,2813.7815,2,3024.5337
219,3,False,right,approach,neg,insect12_crop.jpg,3,22,1.0,218.0,57.0,22.0,DON'T EAT                                    EAT,3025.8284,3005.6611,2813.7815,2,3026.4265
220,3,False,right,approach,neg,insect24_crop.jpg,3,22,1.0,219.0,57.0,22.0,DON'T EAT                                    EAT,3027.8467,3005.6611,2813.7815,2,3028.5256
221,3,False,right,approach,pos,cake5_crop.jpg,3,23,1.0,220.0,57.0,23.0,DON'T EAT                                    EAT,3045.7283,3041.708,2813.7815,2,3046.6917
222,3,False,right,approach,pos,cake36_crop.jpg,3,23,1.0,221.0,57.0,23.0,DON'T EAT                                    EAT,3047.7466,3041.708,2813.7815,2,3048.3728
223,3,False,right,approach,pos,cake28_crop.jpg,3,23,1.0,222.0,57.0,23.0,DON'T EAT                                    EAT,3049.765,3041.708,2813.7815,2,3050.3818
224,3,True,right,avoid,neg,fungus4_crop.jpg,3,23,1.0,223.0,57.0,23.0,DON'T EAT                                    EAT,3051.7832,3041.708,2813.7815,1,3052.517
225,3,False,right,approach,pos,cake13_crop.jpg,3,23,1.0,224.0,57.0,23.0,DON'T EAT                                    EAT,3053.8015,3041.708,2813.7815,2,3054.7563
226,3,False,right,approach,pos,cake16_crop.jpg,3,23,1.0,225.0,57.0,23.0,DON'T EAT                                    EAT,3055.8198,3041.708,2813.7815,2,3056.4387
227,3,False,right,approach,pos,cake2_crop.jpg,3,23,1.0,226.0,57.0,23.0,DON'T EAT                                    EAT,3057.8381,3041.708,2813.7815,2,3058.569
228,3,True,right,avoid,pos,meat36_crop.jpg,3,23,1.0,227.0,57.0,23.0,DON'T EAT                                    EAT,3059.8567,3041.708,2813.7815,1,3060.5498
229,3,False,right,approach,pos,cake26_crop.jpg,3,23,1.0,228.0,57.0,23.0,DON'T EAT                                    EAT,3061.8748,3041.708,2813.7815,2,3062.5452
230,3,False,right,approach,pos,cake12_crop.jpg,3,23,1.0,229.0,57.0,23.0,DON'T EAT                                    EAT,3063.893,3041.708,2813.7815,2,3064.7107
231,0,False,right,approach,neg,insect19_crop.jpg,3,24,1.0,230.0,57.0,24.0,DON'T EAT                                    EAT,3080.2063,3076.2031,2813.7815,2,3081.1384
232,0,True,right,avoid,neg,fungus32_crop.jpg,3,24,1.0,231.0,57.0,24.0,DON'T EAT                                    EAT,3082.225,3076.2031,2813.7815,1,3082.925
233,0,False,right,approach,neg,insect1_crop.jpg,3,24,1.0,232.0,57.0,24.0,DON'T EAT                                    EAT,3084.2434,3076.2031,2813.7815,2,3084.997
234,0,False,right,approach,neg,insect7_crop.jpg,3,24,1.0,233.0,57.0,24.0,DON'T EAT                                    EAT,3086.2615,3076.2031,2813.7815,2,3086.8596
235,0,False,right,approach,neg,insect11_crop.jpg,3,24,1.0,234.0,57.0,24.0,DON'T EAT                                    EAT,3088.2803,3076.2031,2813.7815,2,3090.15
236,0,False,right,approach,neg,insect37_crop.jpg,3,24,1.0,235.0,57.0,24.0,DON'T EAT                                    EAT,3090.2986,3076.2031,2813.7815,2,3091.0637
237,0,False,right,approach,neg,insect33_crop.jpg,3,24,1.0,236.0,57.0,24.0,DON'T EAT                                    EAT,3092.3167,3076.2031,2813.7815,2,3093.0198
238,0,False,right,approach,neg,insect13_crop.jpg,3,24,1.0,237.0,57.0,24.0,DON'T EAT                                    EAT,3094.3352,3076.2031,2813.7815,2,3094.985
239,0,True,right,avoid,pos,meat31_crop.jpg,3,24,1.0,238.0,57.0,24.0,DON'T EAT                                    EAT,3096.3533,3076.2031,2813.7815,1,3097.1394
240,0,False,right,approach,neg,insect35_crop.jpg,3,24,1.0,239.0,57.0,24.0,DON'T EAT                                    EAT,3098.3713,3076.2031,2813.7815,2,3099.2039
241,0,False,right,avoid,pos,meat14_crop.jpg,4,25,1.0,240.0,57.0,25.0,DON'T EAT                                    EAT,3207.4124,3203.392,3190.7656,1,3208.6357
242,0,True,right,approach,pos,cake17_crop.jpg,4,25,1.0,241.0,57.0,25.0,DON'T EAT                                    EAT,3209.4307,3203.392,3190.7656,2,3210.124
243,0,False,right,avoid,pos,meat34_crop.jpg,4,25,1.0,242.0,57.0,25.0,DON'T EAT                                    EAT,3211.449,3203.392,3190.7656,1,3212.4875
244,0,False,right,avoid,pos,meat29_crop.jpg,4,25,1.0,243.0,57.0,25.0,DON'T EAT                                    EAT,3213.4673,3203.392,3190.7656,1,3214.2952
245,0,False,right,avoid,pos,meat13_crop.jpg,4,25,1.0,244.0,57.0,25.0,DON'T EAT                                    EAT,3215.4858,3203.392,3190.7656,1,3216.1367
246,0,False,right,avoid,pos,meat26_crop.jpg,4,25,1.0,245.0,57.0,25.0,DON'T EAT                                    EAT,3217.5042,3203.392,3190.7656,1,3218.271
247,0,False,right,avoid,pos,meat25_crop.jpg,4,25,1.0,246.0,57.0,25.0,DON'T EAT                                    EAT,3219.5222,3203.392,3190.7656,1,3220.3108
248,0,False,right,avoid,pos,meat12_crop.jpg,4,25,1.0,247.0,57.0,25.0,DON'T EAT                                    EAT,3221.541,3203.392,3190.7656,1,3222.3474
249,0,True,right,approach,neg,insect40_crop.jpg,4,25,1.0,248.0,57.0,25.0,DON'T EAT                                    EAT,3223.559,3203.392,3190.7656,2,3224.45
250,0,False,right,avoid,pos,meat18_crop.jpg,4,25,1.0,249.0,57.0,25.0,DON'T EAT                                    EAT,3225.5774,3203.392,3190.7656,1,3226.2346
251,2,False,right,avoid,pos,meat10_crop.jpg,4,26,1.0,250.0,57.0,26.0,DON'T EAT                                    EAT,3241.7573,3237.754,3190.7656,1,3242.9822
252,2,False,right,avoid,pos,meat16_crop.jpg,4,26,1.0,251.0,57.0,26.0,DON'T EAT                                    EAT,3243.776,3237.754,3190.7656,1,3244.5183
253,2,False,right,avoid,pos,meat27_crop.jpg,4,26,1.0,252.0,57.0,26.0,DON'T EAT                                    EAT,3245.7942,3237.754,3190.7656,1,3246.4028
254,2,False,right,avoid,pos,meat4_crop.jpg,4,26,1.0,253.0,57.0,26.0,DON'T EAT                                    EAT,3247.8123,3237.754,3190.7656,1,3248.4824
255,2,True,right,approach,pos,cake34_crop.jpg,4,26,1.0,254.0,57.0,26.0,DON'T EAT                                    EAT,3249.831,3237.754,3190.7656,2,3250.6487
256,2,False,right,avoid,pos,meat35_crop.jpg,4,26,1.0,255.0,57.0,26.0,DON'T EAT                                    EAT,3251.8494,3237.754,3190.7656,1,3252.6055
257,2,False,right,avoid,pos,meat1_crop.jpg,4,26,1.0,256.0,57.0,26.0,DON'T EAT                                    EAT,3253.8672,3237.754,3190.7656,1,3254.5813
258,2,True,right,approach,neg,insect20_crop.jpg,4,26,1.0,257.0,57.0,26.0,DON'T EAT                                    EAT,3255.886,3237.754,3190.7656,2,3256.842
259,2,False,right,avoid,pos,meat6_crop.jpg,4,26,1.0,258.0,57.0,26.0,DON'T EAT                                    EAT,3257.904,3237.754,3190.7656,1,3258.72
260,2,False,right,avoid,pos,meat9_crop.jpg,4,26,1.0,259.0,57.0,26.0,DON'T EAT                                    EAT,3259.9226,3237.754,3190.7656,1,3260.8457
261,3,False,left,approach,pos,cake29_crop.jpg,4,27,1.0,260.0,57.0,27.0,DON'T EAT                                    EAT,3278.4214,3274.4014,3190.7656,2,3279.3594
262,3,False,left,approach,pos,cake11_crop.jpg,4,27,1.0,261.0,57.0,27.0,DON'T EAT                                    EAT,3280.44,3274.4014,3190.7656,2,3281.0164
263,3,False,left,approach,pos,cake19_crop.jpg,4,27,1.0,262.0,57.0,27.0,DON'T EAT                                    EAT,3282.4583,3274.4014,3190.7656,2,3283.2532
264,3,False,left,approach,pos,cake31_crop.jpg,4,27,1.0,263.0,57.0,27.0,DON'T EAT                                    EAT,3284.4763,3274.4014,3190.7656,2,3285.1465
265,3,False,left,approach,pos,cake26_crop.jpg,4,27,1.0,264.0,57.0,27.0,DON'T EAT                                    EAT,3286.4949,3274.4014,3190.7656,2,3287.1665
266,3,False,left,approach,pos,cake18_crop.jpg,4,27,1.0,265.0,57.0,27.0,DON'T EAT                                    EAT,3288.5127,3274.4014,3190.7656,2,3289.2615
267,3,False,left,approach,pos,cake20_crop.jpg,4,27,1.0,266.0,57.0,27.0,DON'T EAT                                    EAT,3290.5312,3274.4014,3190.7656,2,3291.192
268,3,True,left,avoid,neg,fungus21_crop.jpg,4,27,1.0,267.0,57.0,27.0,DON'T EAT                                    EAT,3292.55,3274.4014,3190.7656,1,3293.432
269,3,False,left,approach,pos,cake35_crop.jpg,4,27,1.0,268.0,57.0,27.0,DON'T EAT                                    EAT,3294.568,3274.4014,3190.7656,2,3295.242
270,3,True,left,avoid,pos,meat26_crop.jpg,4,27,1.0,269.0,57.0,27.0,DON'T EAT                                    EAT,3296.5864,3274.4014,3190.7656,2,3297.1226
271,2,True,left,approach,pos,cake4_crop.jpg,4,28,1.0,270.0,57.0,28.0,DON'T EAT                                    EAT,3316.5864,3312.5664,3190.7656,2,3318.1726
272,2,False,left,avoid,neg,fungus23_crop.jpg,4,28,1.0,271.0,57.0,28.0,DON'T EAT                                    EAT,3318.6042,3312.5664,3190.7656,1,3319.5107
273,2,False,left,avoid,neg,fungus12_crop.jpg,4,28,1.0,272.0,57.0,28.0,DON'T EAT                                    EAT,3320.623,3312.5664,3190.7656,1,3321.4507
274,2,False,left,avoid,neg,fungus39_crop.jpg,4,28,1.0,273.0,57.0,28.0,DON'T EAT                                    EAT,3322.6414,3312.5664,3190.7656,1,3323.3232
275,2,False,left,avoid,neg,fungus32_crop.jpg,4,28,1.0,274.0,57.0,28.0,DON'T EAT                                    EAT,3324.66,3312.5664,3190.7656,1,3325.363
276,2,False,left,avoid,neg,fungus14_crop.jpg,4,28,1.0,275.0,57.0,28.0,DON'T EAT                                    EAT,3326.6782,3312.5664,3190.7656,1,3327.3887
277,2,False,left,avoid,neg,fungus9_crop.jpg,4,28,1.0,276.0,57.0,28.0,DON'T EAT                                    EAT,3328.696,3312.5664,3190.7656,1,3329.3948
278,2,False,left,avoid,neg,fungus25_crop.jpg,4,28,1.0,277.0,57.0,28.0,DON'T EAT                                    EAT,3330.7148,3312.5664,3190.7656,1,3331.7192
279,2,True,left,approach,neg,insect18_crop.jpg,4,28,1.0,278.0,57.0,28.0,DON'T EAT                                    EAT,3332.7332,3312.5664,3190.7656,1,3333.3296
280,2,False,left,avoid,neg,fungus15_crop.jpg,4,28,1.0,279.0,57.0,28.0,DON'T EAT                                    EAT,3334.7512,3312.5664,3190.7656,1,3335.3596
281,0,False,left,avoid,pos,meat23_crop.jpg,4,29,1.0,280.0,57.0,29.0,DON'T EAT                                    EAT,3352.0322,3348.0122,3190.7656,1,3352.9246
282,0,False,left,avoid,pos,meat4_crop.jpg,4,29,1.0,281.0,57.0,29.0,DON'T EAT                                    EAT,3354.051,3348.0122,3190.7656,1,3354.8367
283,0,False,left,avoid,pos,meat1_crop.jpg,4,29,1.0,282.0,57.0,29.0,DON'T EAT                                    EAT,3356.069,3348.0122,3190.7656,1,3356.941
284,0,False,left,avoid,pos,meat15_crop.jpg,4,29,1.0,283.0,57.0,29.0,DON'T EAT                                    EAT,3358.0876,3348.0122,3190.7656,1,3358.9019
285,0,True,left,approach,pos,cake16_crop.jpg,4,29,1.0,284.0,57.0,29.0,DON'T EAT                                    EAT,3360.106,3348.0122,3190.7656,2,3360.9126
286,0,False,left,avoid,pos,meat10_crop.jpg,4,29,1.0,285.0,57.0,29.0,DON'T EAT                                    EAT,3362.1243,3348.0122,3190.7656,1,3362.814
287,0,False,left,avoid,pos,meat25_crop.jpg,4,29,1.0,286.0,57.0,29.0,DON'T EAT                                    EAT,3364.1426,3348.0122,3190.7656,1,3364.8555
288,0,True,left,approach,neg,insect10_crop.jpg,4,29,1.0,287.0,57.0,29.0,DON'T EAT                                    EAT,3366.161,3348.0122,3190.7656,2,3366.8726
289,0,False,left,avoid,pos,meat2_crop.jpg,4,29,1.0,288.0,57.0,29.0,DON'T EAT                                    EAT,3368.179,3348.0122,3190.7656,1,3368.775
290,0,False,left,avoid,pos,meat31_crop.jpg,4,29,1.0,289.0,57.0,29.0,DON'T EAT                                    EAT,3370.1973,3348.0122,3190.7656,1,3370.858
291,0,False,right,approach,pos,cake31_crop.jpg,4,30,1.0,290.0,57.0,30.0,DON'T EAT                                    EAT,3388.0293,3384.009,3190.7656,2,3389.0515
292,0,False,right,approach,pos,cake33_crop.jpg,4,30,1.0,291.0,57.0,30.0,DON'T EAT                                    EAT,3390.0474,3384.009,3190.7656,2,3390.623
293,0,False,right,approach,pos,cake23_crop.jpg,4,30,1.0,292.0,57.0,30.0,DON'T EAT                                    EAT,3392.0657,3384.009,3190.7656,2,3392.7153
294,0,False,right,approach,pos,cake18_crop.jpg,4,30,1.0,293.0,57.0,30.0,DON'T EAT                                    EAT,3394.084,3384.009,3190.7656,2,3394.9216
295,0,True,right,avoid,pos,meat15_crop.jpg,4,30,1.0,294.0,57.0,30.0,DON'T EAT                                    EAT,3396.1023,3384.009,3190.7656,1,3396.848
296,0,True,right,avoid,neg,fungus26_crop.jpg,4,30,1.0,295.0,57.0,30.0,DON'T EAT                                    EAT,3398.1208,3384.009,3190.7656,1,3399.1318
297,0,False,right,approach,pos,cake11_crop.jpg,4,30,1.0,296.0,57.0,30.0,DON'T EAT                                    EAT,3400.1392,3384.009,3190.7656,2,3400.904
298,0,False,right,approach,pos,cake35_crop.jpg,4,30,1.0,297.0,57.0,30.0,DON'T EAT                                    EAT,3402.1575,3384.009,3190.7656,2,3402.9226
299,0,False,right,approach,pos,cake39_crop.jpg,4,30,1.0,298.0,57.0,30.0,DON'T EAT                                    EAT,3404.1758,3384.009,3190.7656,2,3404.951
300,0,False,right,approach,pos,cake19_crop.jpg,4,30,1.0,299.0,57.0,30.0,DON'T EAT                                    EAT,3406.1936,3384.009,3190.7656,2,3406.7551
301,3,False,right,avoid,pos,meat30_crop.jpg,4,31,1.0,300.0,57.0,31.0,DON'T EAT                                    EAT,3423.5085,3419.4885,3190.7656,1,3424.4834
302,3,False,right,avoid,pos,meat38_crop.jpg,4,31,1.0,301.0,57.0,31.0,DON'T EAT                                    EAT,3425.5269,3419.4885,3190.7656,1,3426.283
303,3,False,right,avoid,pos,meat2_crop.jpg,4,31,1.0,302.0,57.0,31.0,DON'T EAT                                    EAT,3427.5454,3419.4885,3190.7656,1,3428.404
304,3,True,right,approach,neg,insect6_crop.jpg,4,31,1.0,303.0,57.0,31.0,DON'T EAT                                    EAT,3429.5632,3419.4885,3190.7656,2,3430.412
305,3,True,right,approach,pos,cake3_crop.jpg,4,31,1.0,304.0,57.0,31.0,DON'T EAT                                    EAT,3431.582,3419.4885,3190.7656,2,3432.378
306,3,False,right,avoid,pos,meat40_crop.jpg,4,31,1.0,305.0,57.0,31.0,DON'T EAT                                    EAT,3433.6003,3419.4885,3190.7656,1,3434.427
307,3,False,right,avoid,pos,meat19_crop.jpg,4,31,1.0,306.0,57.0,31.0,DON'T EAT                                    EAT,3435.6184,3419.4885,3190.7656,1,3436.4468
308,3,False,right,avoid,pos,meat21_crop.jpg,4,31,1.0,307.0,57.0,31.0,DON'T EAT                                    EAT,3437.637,3419.4885,3190.7656,1,3438.3918
309,3,False,right,avoid,pos,meat24_crop.jpg,4,31,1.0,308.0,57.0,31.0,DON'T EAT                                    EAT,3439.6553,3419.4885,3190.7656,1,3440.3281
310,3,False,right,avoid,pos,meat20_crop.jpg,4,31,1.0,309.0,57.0,31.0,DON'T EAT                                    EAT,3441.6733,3419.4885,3190.7656,1,3442.3972
311,2,False,left,avoid,pos,meat13_crop.jpg,4,32,1.0,310.0,57.0,32.0,DON'T EAT                                    EAT,3460.3723,3456.3523,3190.7656,1,3461.87
312,2,False,left,avoid,pos,meat30_crop.jpg,4,32,1.0,311.0,57.0,32.0,DON'T EAT                                    EAT,3462.3909,3456.3523,3190.7656,1,3463.0825
313,2,False,left,avoid,pos,meat29_crop.jpg,4,32,1.0,312.0,57.0,32.0,DON'T EAT                                    EAT,3464.4092,3456.3523,3190.7656,1,3464.976
314,2,True,left,approach,pos,cake7_crop.jpg,4,32,1.0,313.0,57.0,32.0,DON'T EAT                                    EAT,3466.4277,3456.3523,3190.7656,2,3467.3044
315,2,False,left,avoid,pos,meat34_crop.jpg,4,32,1.0,314.0,57.0,32.0,DON'T EAT                                    EAT,3468.4458,3456.3523,3190.7656,1,3469.4653
316,2,False,left,avoid,pos,meat3_crop.jpg,4,32,1.0,315.0,57.0,32.0,DON'T EAT                                    EAT,3470.464,3456.3523,3190.7656,1,3471.3755
317,2,True,left,approach,neg,insect37_crop.jpg,4,32,1.0,316.0,57.0,32.0,DON'T EAT                                    EAT,3472.4824,3456.3523,3190.7656,2,3473.4246
318,2,False,left,avoid,pos,meat40_crop.jpg,4,32,1.0,317.0,57.0,32.0,DON'T EAT                                    EAT,3474.501,3456.3523,3190.7656,1,3475.2246
319,2,False,left,avoid,pos,meat28_crop.jpg,4,32,1.0,318.0,57.0,32.0,DON'T EAT                                    EAT,3476.5193,3456.3523,3190.7656,1,3477.2017
320,2,False,left,avoid,pos,meat9_crop.jpg,4,32,1.0,319.0,57.0,32.0,DON'T EAT                                    EAT,3478.5376,3456.3523,3190.7656,1,3479.4116
