subject,trial_number,n_block,catch,hand,mot,val,stim_name,run_number,num_block,ran,order,response,time_of_response,subject_number,left_side_resp_label,trial_onset,blk_instr_onset,baseline_onset,response_hand,response_cleaned,response_lat,response_lat_cleaned,response_meaning,response_meaning_cleaned,condition_mot,condition_val,condition,correct,correct_cleaned,rt
sub-003,1,1,FALSE,right,avoid,pos,meat17_crop.jpg,1,1,TRUE,0,1,2193.1384,3,DON'T EAT                                    EAT,2191.8206,2187.8003,2175.0642,left,1,left,left,not_eat,not_eat,avoid,pos,avoid-pos,1,1,1317.7999999998137
sub-003,2,1,FALSE,right,avoid,pos,meat37_crop.jpg,1,1,TRUE,1,1,2194.9468,3,DON'T EAT                                    EAT,2193.839,2187.8003,2175.0642,left,1,left,left,not_eat,not_eat,avoid,pos,avoid-pos,1,1,1107.8000000002794
sub-003,3,1,TRUE,right,approach,pos,cake28_crop.jpg,1,1,TRUE,2,--,NA,3,DON'T EAT                                    EAT,2195.857,2187.8003,2175.0642,left,2,NA,right,no_response,eat,avoid,pos,avoid-pos,NA,1,NA
sub-003,4,1,FALSE,right,avoid,pos,meat9_crop.jpg,1,1,TRUE,3,1,2199.2969,3,DON'T EAT                                    EAT,2197.8787,2187.8003,2175.0642,left,1,left,left,not_eat,not_eat,avoid,pos,avoid-pos,1,1,1418.1999999997206
sub-003,5,1,FALSE,right,avoid,pos,meat4_crop.jpg,1,1,TRUE,4,1,2201.2761,3,DON'T EAT                                    EAT,2199.8955,2187.8003,2175.0642,left,1,left,left,not_eat,not_eat,avoid,pos,avoid-pos,1,1,1380.6000000000931
sub-003,6,1,TRUE,right,approach,neg,insect29_crop.jpg,1,1,TRUE,5,--,NA,3,DON'T EAT                                    EAT,2201.912,2187.8003,2175.0642,left,2,NA,right,no_response,eat,avoid,pos,avoid-pos,NA,1,NA
sub-003,7,1,FALSE,right,avoid,pos,meat31_crop.jpg,1,1,TRUE,6,1,2204.7314,3,DON'T EAT                                    EAT,2203.9304,2187.8003,2175.0642,left,1,left,left,not_eat,not_eat,avoid,pos,avoid-pos,1,1,800.9999999995343
sub-003,8,1,FALSE,right,avoid,pos,meat29_crop.jpg,1,1,TRUE,7,1,2206.8967,3,DON'T EAT                                    EAT,2205.9487,2187.8003,2175.0642,left,1,left,left,not_eat,not_eat,avoid,pos,avoid-pos,1,1,948
sub-003,9,1,FALSE,right,avoid,pos,meat1_crop.jpg,1,1,TRUE,8,1,2209.0613,3,DON'T EAT                                    EAT,2207.967,2187.8003,2175.0642,left,1,left,left,not_eat,not_eat,avoid,pos,avoid-pos,1,1,1094.2999999998137
sub-003,10,1,FALSE,right,avoid,pos,meat23_crop.jpg,1,1,TRUE,9,1,2210.8013,3,DON'T EAT                                    EAT,2209.9856,2187.8003,2175.0642,left,1,left,left,not_eat,not_eat,avoid,pos,avoid-pos,1,1,815.7000000001863
sub-003,11,0,FALSE,left,avoid,neg,fungus16_crop.jpg,1,2,TRUE,10,1,2228.58,3,DON'T EAT                                    EAT,2227.5166,2223.4966,2175.0642,left,1,left,left,not_eat,not_eat,avoid,neg,avoid-neg,1,1,1063.3999999999069
sub-003,12,0,FALSE,left,avoid,neg,fungus25_crop.jpg,1,2,TRUE,11,1,2230.402,3,DON'T EAT                                    EAT,2229.5352,2223.4966,2175.0642,left,1,left,left,not_eat,not_eat,avoid,neg,avoid-neg,1,1,866.8000000002794
sub-003,13,0,FALSE,left,avoid,neg,fungus10_crop.jpg,1,2,TRUE,12,1,2232.2725,3,DON'T EAT                                    EAT,2231.5535,2223.4966,2175.0642,left,1,left,left,not_eat,not_eat,avoid,neg,avoid-neg,1,1,719
sub-003,14,0,TRUE,left,approach,neg,insect33_crop.jpg,1,2,TRUE,13,--,NA,3,DON'T EAT                                    EAT,2233.5718,2223.4966,2175.0642,left,2,NA,right,no_response,eat,avoid,neg,avoid-neg,NA,1,NA
sub-003,15,0,FALSE,left,avoid,neg,fungus22_crop.jpg,1,2,TRUE,14,1,2236.3376,3,DON'T EAT                                    EAT,2235.59,2223.4966,2175.0642,left,1,left,left,not_eat,not_eat,avoid,neg,avoid-neg,1,1,747.5999999996275
sub-003,16,0,FALSE,left,avoid,neg,fungus26_crop.jpg,1,2,TRUE,15,1,2238.4521,3,DON'T EAT                                    EAT,2237.6086,2223.4966,2175.0642,left,1,left,left,not_eat,not_eat,avoid,neg,avoid-neg,1,1,843.5
sub-003,17,0,FALSE,left,avoid,neg,fungus12_crop.jpg,1,2,TRUE,16,1,2240.506,3,DON'T EAT                                    EAT,2239.627,2223.4966,2175.0642,left,1,left,left,not_eat,not_eat,avoid,neg,avoid-neg,1,1,879
sub-003,18,0,FALSE,left,avoid,neg,fungus32_crop.jpg,1,2,TRUE,17,1,2242.5315,3,DON'T EAT                                    EAT,2241.6453,2223.4966,2175.0642,left,1,left,left,not_eat,not_eat,avoid,neg,avoid-neg,1,1,886.1999999997206
sub-003,19,0,FALSE,left,avoid,neg,fungus14_crop.jpg,1,2,TRUE,18,1,2244.4556,3,DON'T EAT                                    EAT,2243.6636,2223.4966,2175.0642,left,1,left,left,not_eat,not_eat,avoid,neg,avoid-neg,1,1,792
sub-003,20,0,TRUE,left,approach,pos,cake36_crop.jpg,1,2,TRUE,19,--,NA,3,DON'T EAT                                    EAT,2245.6816,2223.4966,2175.0642,left,2,NA,right,no_response,eat,avoid,neg,avoid-neg,NA,1,NA
sub-003,21,1,FALSE,right,avoid,neg,fungus32_crop.jpg,1,3,TRUE,20,1,2263.9695,3,DON'T EAT                                    EAT,2262.9128,2258.8928,2175.0642,left,1,left,left,not_eat,not_eat,avoid,neg,avoid-neg,1,1,1056.6999999997206
sub-003,22,1,FALSE,right,avoid,neg,fungus6_crop.jpg,1,3,TRUE,21,1,2265.5012,3,DON'T EAT                                    EAT,2264.931,2258.8928,2175.0642,left,1,left,left,not_eat,not_eat,avoid,neg,avoid-neg,1,1,570.2000000001863
sub-003,23,1,FALSE,right,avoid,neg,fungus23_crop.jpg,1,3,TRUE,22,1,2267.7922,3,DON'T EAT                                    EAT,2266.9495,2258.8928,2175.0642,left,1,left,left,not_eat,not_eat,avoid,neg,avoid-neg,1,1,842.6999999997206
sub-003,24,1,TRUE,right,approach,neg,insect4_crop.jpg,1,3,TRUE,23,--,NA,3,DON'T EAT                                    EAT,2268.9678,2258.8928,2175.0642,left,2,NA,right,no_response,eat,avoid,neg,avoid-neg,NA,1,NA
sub-003,25,1,FALSE,right,avoid,neg,fungus17_crop.jpg,1,3,TRUE,24,1,2271.802,3,DON'T EAT                                    EAT,2270.9858,2258.8928,2175.0642,left,1,left,left,not_eat,not_eat,avoid,neg,avoid-neg,1,1,816.2000000001863
sub-003,26,1,FALSE,right,avoid,neg,fungus22_crop.jpg,1,3,TRUE,25,1,2273.7551,3,DON'T EAT                                    EAT,2273.0046,2258.8928,2175.0642,left,1,left,left,not_eat,not_eat,avoid,neg,avoid-neg,1,1,750.4999999995343
sub-003,27,1,TRUE,right,approach,pos,cake34_crop.jpg,1,3,TRUE,26,--,NA,3,DON'T EAT                                    EAT,2275.0225,2258.8928,2175.0642,left,2,NA,right,no_response,eat,avoid,neg,avoid-neg,NA,1,NA
sub-003,28,1,FALSE,right,avoid,neg,fungus35_crop.jpg,1,3,TRUE,27,1,2277.7903,3,DON'T EAT                                    EAT,2277.0413,2258.8928,2175.0642,left,1,left,left,not_eat,not_eat,avoid,neg,avoid-neg,1,1,749.0000000004657
sub-003,29,1,FALSE,right,avoid,neg,fungus3_crop.jpg,1,3,TRUE,28,1,2279.9353,3,DON'T EAT                                    EAT,2279.0596,2258.8928,2175.0642,left,1,left,left,not_eat,not_eat,avoid,neg,avoid-neg,1,1,875.7000000001863
sub-003,30,1,FALSE,right,avoid,neg,fungus38_crop.jpg,1,3,TRUE,29,--,NA,3,DON'T EAT                                    EAT,2281.0781,2258.8928,2175.0642,left,2,NA,right,no_response,eat,avoid,neg,avoid-neg,NA,0,NA
sub-003,31,2,TRUE,right,approach,neg,insect31_crop.jpg,1,4,TRUE,30,--,NA,3,DON'T EAT                                    EAT,2298.2087,2294.1887,2175.0642,left,2,NA,right,no_response,eat,avoid,pos,avoid-pos,NA,1,NA
sub-003,32,2,FALSE,right,avoid,pos,meat21_crop.jpg,1,4,TRUE,31,1,2301.7756,3,DON'T EAT                                    EAT,2300.227,2294.1887,2175.0642,left,1,left,left,not_eat,not_eat,avoid,pos,avoid-pos,1,1,1548.6000000000931
sub-003,33,2,FALSE,right,avoid,pos,meat39_crop.jpg,1,4,TRUE,32,1,2302.9224,3,DON'T EAT                                    EAT,2302.2456,2294.1887,2175.0642,left,1,left,left,not_eat,not_eat,avoid,pos,avoid-pos,1,1,676.7999999998137
sub-003,34,2,FALSE,right,avoid,pos,meat10_crop.jpg,1,4,TRUE,33,1,2304.99,3,DON'T EAT                                    EAT,2304.264,2294.1887,2175.0642,left,1,left,left,not_eat,not_eat,avoid,pos,avoid-pos,1,1,726
sub-003,35,2,FALSE,right,avoid,pos,meat8_crop.jpg,1,4,TRUE,34,1,2306.8938,3,DON'T EAT                                    EAT,2306.2822,2294.1887,2175.0642,left,1,left,left,not_eat,not_eat,avoid,pos,avoid-pos,1,1,611.5999999996275
sub-003,36,2,TRUE,right,approach,pos,cake21_crop.jpg,1,4,TRUE,35,--,NA,3,DON'T EAT                                    EAT,2308.3,2294.1887,2175.0642,left,2,NA,right,no_response,eat,avoid,pos,avoid-pos,NA,1,NA
sub-003,37,2,FALSE,right,avoid,pos,meat3_crop.jpg,1,4,TRUE,36,1,2311.2908,3,DON'T EAT                                    EAT,2310.3188,2294.1887,2175.0642,left,1,left,left,not_eat,not_eat,avoid,pos,avoid-pos,1,1,972.0000000004657
sub-003,38,2,FALSE,right,avoid,pos,meat26_crop.jpg,1,4,TRUE,37,1,2312.9272,3,DON'T EAT                                    EAT,2312.3372,2294.1887,2175.0642,left,1,left,left,not_eat,not_eat,avoid,pos,avoid-pos,1,1,590.0000000004657
sub-003,39,2,FALSE,right,avoid,pos,meat14_crop.jpg,1,4,TRUE,38,1,2314.4622,3,DON'T EAT                                    EAT,2314.3555,2294.1887,2175.0642,left,1,left,left,not_eat,not_eat,avoid,pos,avoid-pos,1,1,106.6999999997206
sub-003,40,2,FALSE,right,avoid,pos,meat27_crop.jpg,1,4,TRUE,39,1,2317.0486,3,DON'T EAT                                    EAT,2316.374,2294.1887,2175.0642,left,1,left,left,not_eat,not_eat,avoid,pos,avoid-pos,1,1,674.6000000000931
sub-003,41,2,FALSE,right,approach,neg,insect19_crop.jpg,1,5,TRUE,40,--,NA,3,DON'T EAT                                    EAT,2336.4072,2332.3872,2175.0642,left,2,NA,right,no_response,eat,approach,neg,approach-neg,NA,1,NA
sub-003,42,2,FALSE,right,approach,neg,insect11_crop.jpg,1,5,TRUE,41,--,NA,3,DON'T EAT                                    EAT,2338.4255,2332.3872,2175.0642,left,2,NA,right,no_response,eat,approach,neg,approach-neg,NA,1,NA
sub-003,43,2,TRUE,right,avoid,neg,fungus8_crop.jpg,1,5,TRUE,42,1,2341.2773,3,DON'T EAT                                    EAT,2340.4438,2332.3872,2175.0642,left,1,left,left,not_eat,not_eat,approach,neg,approach-neg,1,1,833.5000000004657
sub-003,44,2,FALSE,right,approach,neg,insect30_crop.jpg,1,5,TRUE,43,--,NA,3,DON'T EAT                                    EAT,2342.4622,2332.3872,2175.0642,left,2,NA,right,no_response,eat,approach,neg,approach-neg,NA,1,NA
sub-003,45,2,FALSE,right,approach,neg,insect26_crop.jpg,1,5,TRUE,44,--,NA,3,DON'T EAT                                    EAT,2344.4807,2332.3872,2175.0642,left,2,NA,right,no_response,eat,approach,neg,approach-neg,NA,1,NA
sub-003,46,2,FALSE,right,approach,neg,insect27_crop.jpg,1,5,TRUE,45,--,NA,3,DON'T EAT                                    EAT,2346.4988,2332.3872,2175.0642,left,2,NA,right,no_response,eat,approach,neg,approach-neg,NA,1,NA
sub-003,47,2,TRUE,right,avoid,pos,meat35_crop.jpg,1,5,TRUE,46,1,2349.3223,3,DON'T EAT                                    EAT,2348.517,2332.3872,2175.0642,left,1,left,left,not_eat,not_eat,approach,neg,approach-neg,1,1,805.2999999998137
sub-003,48,2,FALSE,right,approach,neg,insect24_crop.jpg,1,5,TRUE,47,--,NA,3,DON'T EAT                                    EAT,2350.5354,2332.3872,2175.0642,left,2,NA,right,no_response,eat,approach,neg,approach-neg,NA,1,NA
sub-003,49,2,FALSE,right,approach,neg,insect34_crop.jpg,1,5,TRUE,48,--,NA,3,DON'T EAT                                    EAT,2352.554,2332.3872,2175.0642,left,2,NA,right,no_response,eat,approach,neg,approach-neg,NA,1,NA
sub-003,50,2,FALSE,right,approach,neg,insect1_crop.jpg,1,5,TRUE,49,--,NA,3,DON'T EAT                                    EAT,2354.5723,2332.3872,2175.0642,left,2,NA,right,no_response,eat,approach,neg,approach-neg,NA,1,NA
sub-003,51,3,FALSE,left,avoid,pos,meat11_crop.jpg,1,6,TRUE,50,1,2373.2043,3,DON'T EAT                                    EAT,2372.1367,2368.117,2175.0642,left,1,left,left,not_eat,not_eat,avoid,pos,avoid-pos,1,1,1067.5999999996275
sub-003,52,3,FALSE,left,avoid,pos,meat10_crop.jpg,1,6,TRUE,51,1,2374.8826,3,DON'T EAT                                    EAT,2374.1553,2368.117,2175.0642,left,1,left,left,not_eat,not_eat,avoid,pos,avoid-pos,1,1,727.3000000002794
sub-003,53,3,FALSE,left,avoid,pos,meat14_crop.jpg,1,6,TRUE,52,1,2376.7559,3,DON'T EAT                                    EAT,2376.1736,2368.117,2175.0642,left,1,left,left,not_eat,not_eat,avoid,pos,avoid-pos,1,1,582.2999999998137
sub-003,54,3,FALSE,left,avoid,pos,meat32_crop.jpg,1,6,TRUE,53,1,2378.7664,3,DON'T EAT                                    EAT,2378.192,2368.117,2175.0642,left,1,left,left,not_eat,not_eat,avoid,pos,avoid-pos,1,1,574.3999999999069
sub-003,55,3,TRUE,left,approach,neg,insect4_crop.jpg,1,6,TRUE,54,--,NA,3,DON'T EAT                                    EAT,2380.2102,2368.117,2175.0642,left,2,NA,right,no_response,eat,avoid,pos,avoid-pos,NA,1,NA
sub-003,56,3,FALSE,left,avoid,pos,meat5_crop.jpg,1,6,TRUE,55,1,2382.997,3,DON'T EAT                                    EAT,2382.2285,2368.117,2175.0642,left,1,left,left,not_eat,not_eat,avoid,pos,avoid-pos,1,1,768.5
sub-003,57,3,TRUE,left,approach,pos,cake12_crop.jpg,1,6,TRUE,56,--,NA,3,DON'T EAT                                    EAT,2384.2468,2368.117,2175.0642,left,2,NA,right,no_response,eat,avoid,pos,avoid-pos,NA,1,NA
sub-003,58,3,FALSE,left,avoid,pos,meat31_crop.jpg,1,6,TRUE,57,1,2387.0151,3,DON'T EAT                                    EAT,2386.2651,2368.117,2175.0642,left,1,left,left,not_eat,not_eat,avoid,pos,avoid-pos,1,1,750
sub-003,59,3,FALSE,left,avoid,pos,meat27_crop.jpg,1,6,TRUE,58,1,2389.1677,3,DON'T EAT                                    EAT,2388.2837,2368.117,2175.0642,left,1,left,left,not_eat,not_eat,avoid,pos,avoid-pos,1,1,884
sub-003,60,3,FALSE,left,avoid,pos,meat2_crop.jpg,1,6,TRUE,59,1,2390.8953,3,DON'T EAT                                    EAT,2390.302,2368.117,2175.0642,left,1,left,left,not_eat,not_eat,avoid,pos,avoid-pos,1,1,593.3000000002794
sub-003,61,1,FALSE,left,avoid,neg,fungus38_crop.jpg,1,7,TRUE,60,1,2410.4075,3,DON'T EAT                                    EAT,2409.618,2405.5977,2175.0642,left,1,left,left,not_eat,not_eat,avoid,neg,avoid-neg,1,1,789.5
sub-003,62,1,FALSE,left,avoid,neg,fungus34_crop.jpg,1,7,TRUE,61,1,2412.4285,3,DON'T EAT                                    EAT,2411.6365,2405.5977,2175.0642,left,1,left,left,not_eat,not_eat,avoid,neg,avoid-neg,1,1,792
sub-003,63,1,FALSE,left,avoid,neg,fungus9_crop.jpg,1,7,TRUE,62,1,2414.2263,3,DON'T EAT                                    EAT,2413.6548,2405.5977,2175.0642,left,1,left,left,not_eat,not_eat,avoid,neg,avoid-neg,1,1,571.5
sub-003,64,1,FALSE,left,avoid,neg,fungus28_crop.jpg,1,7,TRUE,63,1,2416.2224,3,DON'T EAT                                    EAT,2415.673,2405.5977,2175.0642,left,1,left,left,not_eat,not_eat,avoid,neg,avoid-neg,1,1,549.3999999999069
sub-003,65,1,FALSE,left,avoid,neg,fungus20_crop.jpg,1,7,TRUE,64,1,2418.3547,3,DON'T EAT                                    EAT,2417.6914,2405.5977,2175.0642,left,1,left,left,not_eat,not_eat,avoid,neg,avoid-neg,1,1,663.2999999993481
sub-003,66,1,TRUE,left,approach,neg,insect19_crop.jpg,1,7,TRUE,65,--,NA,3,DON'T EAT                                    EAT,2419.7097,2405.5977,2175.0642,left,2,NA,right,no_response,eat,avoid,neg,avoid-neg,NA,1,NA
sub-003,67,1,FALSE,left,avoid,neg,fungus33_crop.jpg,1,7,TRUE,66,1,2422.508,3,DON'T EAT                                    EAT,2421.7278,2405.5977,2175.0642,left,1,left,left,not_eat,not_eat,avoid,neg,avoid-neg,1,1,780.1999999997206
sub-003,68,1,FALSE,left,avoid,neg,fungus21_crop.jpg,1,7,TRUE,67,1,2424.3528,3,DON'T EAT                                    EAT,2423.7466,2405.5977,2175.0642,left,1,left,left,not_eat,not_eat,avoid,neg,avoid-neg,1,1,606.2000000001863
sub-003,69,1,FALSE,left,avoid,neg,fungus27_crop.jpg,1,7,TRUE,68,1,2426.376,3,DON'T EAT                                    EAT,2425.7644,2405.5977,2175.0642,left,1,left,left,not_eat,not_eat,avoid,neg,avoid-neg,1,1,611.6000000000931
sub-003,70,1,TRUE,left,approach,pos,cake9_crop.jpg,1,7,TRUE,69,--,NA,3,DON'T EAT                                    EAT,2427.7832,2405.5977,2175.0642,left,2,NA,right,no_response,eat,avoid,neg,avoid-neg,NA,1,NA
sub-003,71,3,TRUE,right,avoid,pos,meat13_crop.jpg,1,8,TRUE,70,1,2448.0977,3,DON'T EAT                                    EAT,2447.116,2443.0957,2175.0642,left,1,left,left,not_eat,not_eat,approach,pos,approach-pos,1,1,981.6999999997206
sub-003,72,3,FALSE,right,approach,pos,cake11_crop.jpg,1,8,TRUE,71,--,NA,3,DON'T EAT                                    EAT,2449.134,2443.0957,2175.0642,left,2,NA,right,no_response,eat,approach,pos,approach-pos,NA,1,NA
sub-003,73,3,FALSE,right,approach,pos,cake14_crop.jpg,1,8,TRUE,72,--,NA,3,DON'T EAT                                    EAT,2451.1526,2443.0957,2175.0642,left,2,NA,right,no_response,eat,approach,pos,approach-pos,NA,1,NA
sub-003,74,3,FALSE,right,approach,pos,cake13_crop.jpg,1,8,TRUE,73,--,NA,3,DON'T EAT                                    EAT,2453.1702,2443.0957,2175.0642,left,2,NA,right,no_response,eat,approach,pos,approach-pos,NA,1,NA
sub-003,75,3,FALSE,right,approach,pos,cake32_crop.jpg,1,8,TRUE,74,--,NA,3,DON'T EAT                                    EAT,2455.1892,2443.0957,2175.0642,left,2,NA,right,no_response,eat,approach,pos,approach-pos,NA,1,NA
sub-003,76,3,FALSE,right,approach,pos,cake16_crop.jpg,1,8,TRUE,75,--,NA,3,DON'T EAT                                    EAT,2457.2075,2443.0957,2175.0642,left,2,NA,right,no_response,eat,approach,pos,approach-pos,NA,1,NA
sub-003,77,3,FALSE,right,approach,pos,cake4_crop.jpg,1,8,TRUE,76,--,NA,3,DON'T EAT                                    EAT,2459.2258,2443.0957,2175.0642,left,2,NA,right,no_response,eat,approach,pos,approach-pos,NA,1,NA
sub-003,78,3,TRUE,right,avoid,neg,fungus10_crop.jpg,1,8,TRUE,77,1,2461.9644,3,DON'T EAT                                    EAT,2461.2444,2443.0957,2175.0642,left,1,left,left,not_eat,not_eat,approach,pos,approach-pos,1,1,720
sub-003,79,3,FALSE,right,approach,pos,cake39_crop.jpg,1,8,TRUE,78,--,NA,3,DON'T EAT                                    EAT,2463.2625,2443.0957,2175.0642,left,2,NA,right,no_response,eat,approach,pos,approach-pos,NA,1,NA
sub-003,80,3,FALSE,right,approach,pos,cake30_crop.jpg,1,8,TRUE,79,--,NA,3,DON'T EAT                                    EAT,2465.2808,2443.0957,2175.0642,left,2,NA,right,no_response,eat,approach,pos,approach-pos,NA,1,NA
sub-003,81,2,FALSE,left,approach,pos,cake28_crop.jpg,2,9,TRUE,80,--,NA,3,DON'T EAT                                    EAT,2581.4104,2577.3906,2563.3765,right,2,NA,right,no_response,eat,approach,pos,approach-pos,NA,1,NA
sub-003,82,2,FALSE,left,approach,pos,cake22_crop.jpg,2,9,TRUE,81,--,NA,3,DON'T EAT                                    EAT,2583.429,2577.3906,2563.3765,right,2,NA,right,no_response,eat,approach,pos,approach-pos,NA,1,NA
sub-003,83,2,TRUE,left,avoid,neg,fungus17_crop.jpg,2,9,TRUE,82,1,2586.3887,3,DON'T EAT                                    EAT,2585.4473,2577.3906,2563.3765,right,1,left,left,not_eat,not_eat,approach,pos,approach-pos,1,1,941.4000000003725
sub-003,84,2,FALSE,left,approach,pos,cake27_crop.jpg,2,9,TRUE,83,--,NA,3,DON'T EAT                                    EAT,2587.4658,2577.3906,2563.3765,right,2,NA,right,no_response,eat,approach,pos,approach-pos,NA,1,NA
sub-003,85,2,TRUE,left,avoid,pos,meat6_crop.jpg,2,9,TRUE,84,1,2590.3906,3,DON'T EAT                                    EAT,2589.484,2577.3906,2563.3765,right,1,left,left,not_eat,not_eat,approach,pos,approach-pos,1,1,906.6000000000931
sub-003,86,2,FALSE,left,approach,pos,cake26_crop.jpg,2,9,TRUE,85,--,NA,3,DON'T EAT                                    EAT,2591.5022,2577.3906,2563.3765,right,2,NA,right,no_response,eat,approach,pos,approach-pos,NA,1,NA
sub-003,87,2,FALSE,left,approach,pos,cake33_crop.jpg,2,9,TRUE,86,--,NA,3,DON'T EAT                                    EAT,2593.5208,2577.3906,2563.3765,right,2,NA,right,no_response,eat,approach,pos,approach-pos,NA,1,NA
sub-003,88,2,FALSE,left,approach,pos,cake25_crop.jpg,2,9,TRUE,87,--,NA,3,DON'T EAT                                    EAT,2595.539,2577.3906,2563.3765,right,2,NA,right,no_response,eat,approach,pos,approach-pos,NA,1,NA
sub-003,89,2,FALSE,left,approach,pos,cake11_crop.jpg,2,9,TRUE,88,--,NA,3,DON'T EAT                                    EAT,2597.5574,2577.3906,2563.3765,right,2,NA,right,no_response,eat,approach,pos,approach-pos,NA,1,NA
sub-003,90,2,FALSE,left,approach,pos,cake15_crop.jpg,2,9,TRUE,89,--,NA,3,DON'T EAT                                    EAT,2599.5754,2577.3906,2563.3765,right,2,NA,right,no_response,eat,approach,pos,approach-pos,NA,1,NA
sub-003,91,2,FALSE,left,approach,neg,insect38_crop.jpg,2,10,TRUE,90,--,NA,3,DON'T EAT                                    EAT,2616.7065,2612.6865,2563.3765,right,2,NA,right,no_response,eat,approach,neg,approach-neg,NA,1,NA
sub-003,92,2,TRUE,left,avoid,neg,fungus37_crop.jpg,2,10,TRUE,91,--,NA,3,DON'T EAT                                    EAT,2618.725,2612.6865,2563.3765,right,2,NA,right,no_response,eat,approach,neg,approach-neg,NA,0,NA
sub-003,93,2,FALSE,left,approach,neg,insect26_crop.jpg,2,10,TRUE,92,--,NA,3,DON'T EAT                                    EAT,2620.7434,2612.6865,2563.3765,right,2,NA,right,no_response,eat,approach,neg,approach-neg,NA,1,NA
sub-003,94,2,FALSE,left,approach,neg,insect5_crop.jpg,2,10,TRUE,93,--,NA,3,DON'T EAT                                    EAT,2622.7617,2612.6865,2563.3765,right,2,NA,right,no_response,eat,approach,neg,approach-neg,NA,1,NA
sub-003,95,2,FALSE,left,approach,neg,insect37_crop.jpg,2,10,TRUE,94,--,NA,3,DON'T EAT                                    EAT,2624.78,2612.6865,2563.3765,right,2,NA,right,no_response,eat,approach,neg,approach-neg,NA,1,NA
sub-003,96,2,FALSE,left,approach,neg,insect12_crop.jpg,2,10,TRUE,95,--,NA,3,DON'T EAT                                    EAT,2626.7983,2612.6865,2563.3765,right,2,NA,right,no_response,eat,approach,neg,approach-neg,NA,1,NA
sub-003,97,2,FALSE,left,approach,neg,insect39_crop.jpg,2,10,TRUE,96,--,NA,3,DON'T EAT                                    EAT,2628.8167,2612.6865,2563.3765,right,2,NA,right,no_response,eat,approach,neg,approach-neg,NA,1,NA
sub-003,98,2,FALSE,left,approach,neg,insect3_crop.jpg,2,10,TRUE,97,--,NA,3,DON'T EAT                                    EAT,2630.8352,2612.6865,2563.3765,right,2,NA,right,no_response,eat,approach,neg,approach-neg,NA,1,NA
sub-003,99,2,FALSE,left,approach,neg,insect20_crop.jpg,2,10,TRUE,98,--,NA,3,DON'T EAT                                    EAT,2632.8535,2612.6865,2563.3765,right,2,NA,right,no_response,eat,approach,neg,approach-neg,NA,1,NA
sub-003,100,2,TRUE,left,avoid,pos,meat23_crop.jpg,2,10,TRUE,99,1,2635.9165,3,DON'T EAT                                    EAT,2634.8713,2612.6865,2563.3765,right,1,left,left,not_eat,not_eat,approach,neg,approach-neg,1,1,1045.2000000001863
sub-003,101,2,FALSE,right,approach,pos,cake33_crop.jpg,2,11,TRUE,100,--,NA,3,DON'T EAT                                    EAT,2654.3545,2650.3347,2563.3765,right,2,NA,right,no_response,eat,approach,pos,approach-pos,NA,1,NA
sub-003,102,2,FALSE,right,approach,pos,cake10_crop.jpg,2,11,TRUE,101,--,NA,3,DON'T EAT                                    EAT,2656.373,2650.3347,2563.3765,right,2,NA,right,no_response,eat,approach,pos,approach-pos,NA,1,NA
sub-003,103,2,FALSE,right,approach,pos,cake40_crop.jpg,2,11,TRUE,102,--,NA,3,DON'T EAT                                    EAT,2658.391,2650.3347,2563.3765,right,2,NA,right,no_response,eat,approach,pos,approach-pos,NA,1,NA
sub-003,104,2,FALSE,right,approach,pos,cake26_crop.jpg,2,11,TRUE,103,--,NA,3,DON'T EAT                                    EAT,2660.4094,2650.3347,2563.3765,right,2,NA,right,no_response,eat,approach,pos,approach-pos,NA,1,NA
sub-003,105,2,TRUE,right,avoid,pos,meat15_crop.jpg,2,11,TRUE,104,1,2663.569,3,DON'T EAT                                    EAT,2662.428,2650.3347,2563.3765,right,1,left,left,not_eat,not_eat,approach,pos,approach-pos,1,1,1141
sub-003,106,2,FALSE,right,approach,pos,cake29_crop.jpg,2,11,TRUE,105,--,NA,3,DON'T EAT                                    EAT,2664.446,2650.3347,2563.3765,right,2,NA,right,no_response,eat,approach,pos,approach-pos,NA,1,NA
sub-003,107,2,TRUE,right,avoid,neg,fungus30_crop.jpg,2,11,TRUE,106,1,2667.3508,3,DON'T EAT                                    EAT,2666.4644,2650.3347,2563.3765,right,1,left,left,not_eat,not_eat,approach,pos,approach-pos,1,1,886.4000000003725
sub-003,108,2,FALSE,right,approach,pos,cake20_crop.jpg,2,11,TRUE,107,--,NA,3,DON'T EAT                                    EAT,2668.483,2650.3347,2563.3765,right,2,NA,right,no_response,eat,approach,pos,approach-pos,NA,1,NA
sub-003,109,2,FALSE,right,approach,pos,cake12_crop.jpg,2,11,TRUE,108,--,NA,3,DON'T EAT                                    EAT,2670.5012,2650.3347,2563.3765,right,2,NA,right,no_response,eat,approach,pos,approach-pos,NA,1,NA
sub-003,110,2,FALSE,right,approach,pos,cake35_crop.jpg,2,11,TRUE,109,--,NA,3,DON'T EAT                                    EAT,2672.5198,2650.3347,2563.3765,right,2,NA,right,no_response,eat,approach,pos,approach-pos,NA,1,NA
sub-003,111,1,TRUE,right,avoid,pos,meat2_crop.jpg,2,12,TRUE,110,1,2693.0698,3,DON'T EAT                                    EAT,2691.8857,2687.882,2563.3765,right,1,left,left,not_eat,not_eat,approach,neg,approach-neg,1,1,1184.1000000005588
sub-003,112,1,FALSE,right,approach,neg,insect12_crop.jpg,2,12,TRUE,111,--,NA,3,DON'T EAT                                    EAT,2693.9043,2687.882,2563.3765,right,2,NA,right,no_response,eat,approach,neg,approach-neg,NA,1,NA
sub-003,113,1,FALSE,right,approach,neg,insect32_crop.jpg,2,12,TRUE,112,--,NA,3,DON'T EAT                                    EAT,2695.9226,2687.882,2563.3765,right,2,NA,right,no_response,eat,approach,neg,approach-neg,NA,1,NA
sub-003,114,1,FALSE,right,approach,neg,insect13_crop.jpg,2,12,TRUE,113,--,NA,3,DON'T EAT                                    EAT,2697.941,2687.882,2563.3765,right,2,NA,right,no_response,eat,approach,neg,approach-neg,NA,1,NA
sub-003,115,1,FALSE,right,approach,neg,insect2_crop.jpg,2,12,TRUE,114,--,NA,3,DON'T EAT                                    EAT,2699.9592,2687.882,2563.3765,right,2,NA,right,no_response,eat,approach,neg,approach-neg,NA,1,NA
sub-003,116,1,FALSE,right,approach,neg,insect40_crop.jpg,2,12,TRUE,115,--,NA,3,DON'T EAT                                    EAT,2701.9775,2687.882,2563.3765,right,2,NA,right,no_response,eat,approach,neg,approach-neg,NA,1,NA
sub-003,117,1,FALSE,right,approach,neg,insect28_crop.jpg,2,12,TRUE,116,--,NA,3,DON'T EAT                                    EAT,2703.9958,2687.882,2563.3765,right,2,NA,right,no_response,eat,approach,neg,approach-neg,NA,1,NA
sub-003,118,1,FALSE,right,approach,neg,insect22_crop.jpg,2,12,TRUE,117,--,NA,3,DON'T EAT                                    EAT,2706.0142,2687.882,2563.3765,right,2,NA,right,no_response,eat,approach,neg,approach-neg,NA,1,NA
sub-003,119,1,TRUE,right,avoid,neg,fungus1_crop.jpg,2,12,TRUE,118,1,2709.002,3,DON'T EAT                                    EAT,2708.0322,2687.882,2563.3765,right,1,left,left,not_eat,not_eat,approach,neg,approach-neg,1,1,969.7999999998137
sub-003,120,1,FALSE,right,approach,neg,insect25_crop.jpg,2,12,TRUE,119,--,NA,3,DON'T EAT                                    EAT,2710.0508,2687.882,2563.3765,right,2,NA,right,no_response,eat,approach,neg,approach-neg,NA,1,NA
sub-003,121,3,FALSE,right,avoid,neg,fungus14_crop.jpg,2,13,TRUE,120,1,2730.6685,3,DON'T EAT                                    EAT,2729.6172,2725.5972,2563.3765,right,1,left,left,not_eat,not_eat,avoid,neg,avoid-neg,1,1,1051.2999999998137
sub-003,122,3,FALSE,right,avoid,neg,fungus2_crop.jpg,2,13,TRUE,121,1,2732.567,3,DON'T EAT                                    EAT,2731.6355,2725.5972,2563.3765,right,1,left,left,not_eat,not_eat,avoid,neg,avoid-neg,1,1,931.5
sub-003,123,3,FALSE,right,avoid,neg,fungus16_crop.jpg,2,13,TRUE,122,1,2734.5266,3,DON'T EAT                                    EAT,2733.654,2725.5972,2563.3765,right,1,left,left,not_eat,not_eat,avoid,neg,avoid-neg,1,1,872.6000000000931
sub-003,124,3,TRUE,right,approach,neg,insect15_crop.jpg,2,13,TRUE,123,--,NA,3,DON'T EAT                                    EAT,2735.672,2725.5972,2563.3765,right,2,NA,right,no_response,eat,avoid,neg,avoid-neg,NA,1,NA
sub-003,125,3,FALSE,right,avoid,neg,fungus27_crop.jpg,2,13,TRUE,124,1,2738.5955,3,DON'T EAT                                    EAT,2737.6904,2725.5972,2563.3765,right,1,left,left,not_eat,not_eat,avoid,neg,avoid-neg,1,1,905.1000000000931
sub-003,126,3,FALSE,right,avoid,neg,fungus11_crop.jpg,2,13,TRUE,125,1,2740.5735,3,DON'T EAT                                    EAT,2739.7083,2725.5972,2563.3765,right,1,left,left,not_eat,not_eat,avoid,neg,avoid-neg,1,1,865.2000000001863
sub-003,127,3,FALSE,right,avoid,neg,fungus40_crop.jpg,2,13,TRUE,126,1,2742.5383,3,DON'T EAT                                    EAT,2741.7273,2725.5972,2563.3765,right,1,left,left,not_eat,not_eat,avoid,neg,avoid-neg,1,1,811.0000000004657
sub-003,128,3,FALSE,right,avoid,neg,fungus34_crop.jpg,2,13,TRUE,127,1,2744.3806,3,DON'T EAT                                    EAT,2743.7456,2725.5972,2563.3765,right,1,left,left,not_eat,not_eat,avoid,neg,avoid-neg,1,1,635
sub-003,129,3,FALSE,right,avoid,neg,fungus31_crop.jpg,2,13,TRUE,128,1,2746.5864,3,DON'T EAT                                    EAT,2745.764,2725.5972,2563.3765,right,1,left,left,not_eat,not_eat,avoid,neg,avoid-neg,1,1,822.4000000003725
sub-003,130,3,TRUE,right,approach,pos,cake2_crop.jpg,2,13,TRUE,129,--,NA,3,DON'T EAT                                    EAT,2747.7822,2725.5972,2563.3765,right,2,NA,right,no_response,eat,avoid,neg,avoid-neg,NA,1,NA
sub-003,131,3,FALSE,right,avoid,pos,meat38_crop.jpg,2,14,TRUE,130,1,2766.8958,3,DON'T EAT                                    EAT,2765.764,2761.744,2563.3765,right,1,left,left,not_eat,not_eat,avoid,pos,avoid-pos,1,1,1131.7999999998137
sub-003,132,3,TRUE,right,approach,neg,insect21_crop.jpg,2,14,TRUE,131,--,NA,3,DON'T EAT                                    EAT,2767.7822,2761.744,2563.3765,right,2,NA,right,no_response,eat,avoid,pos,avoid-pos,NA,1,NA
sub-003,133,3,FALSE,right,avoid,pos,meat34_crop.jpg,2,14,TRUE,132,1,2771.2434,3,DON'T EAT                                    EAT,2769.8,2761.744,2563.3765,right,1,left,left,not_eat,not_eat,avoid,pos,avoid-pos,1,1,1443.3999999999069
sub-003,134,3,TRUE,right,approach,pos,cake8_crop.jpg,2,14,TRUE,133,--,NA,3,DON'T EAT                                    EAT,2771.8188,2761.744,2563.3765,right,2,NA,right,no_response,eat,avoid,pos,avoid-pos,NA,1,NA
sub-003,135,3,FALSE,right,avoid,pos,meat28_crop.jpg,2,14,TRUE,134,1,2774.7231,3,DON'T EAT                                    EAT,2773.8372,2761.744,2563.3765,right,1,left,left,not_eat,not_eat,avoid,pos,avoid-pos,1,1,885.9000000003725
sub-003,136,3,FALSE,right,avoid,pos,meat20_crop.jpg,2,14,TRUE,135,1,2776.7734,3,DON'T EAT                                    EAT,2775.8555,2761.744,2563.3765,right,1,left,left,not_eat,not_eat,avoid,pos,avoid-pos,1,1,917.8999999999069
sub-003,137,3,FALSE,right,avoid,pos,meat25_crop.jpg,2,14,TRUE,136,1,2779.6038,3,DON'T EAT                                    EAT,2777.874,2761.744,2563.3765,right,1,left,left,not_eat,not_eat,avoid,pos,avoid-pos,1,1,1729.7999999998137
sub-003,138,3,FALSE,right,avoid,pos,meat22_crop.jpg,2,14,TRUE,137,1,2780.5593,3,DON'T EAT                                    EAT,2779.892,2761.744,2563.3765,right,1,left,left,not_eat,not_eat,avoid,pos,avoid-pos,1,1,667.2999999998137
sub-003,139,3,FALSE,right,avoid,pos,meat12_crop.jpg,2,14,TRUE,138,1,2782.5623,3,DON'T EAT                                    EAT,2781.9106,2761.744,2563.3765,right,1,left,left,not_eat,not_eat,avoid,pos,avoid-pos,1,1,651.7000000001863
sub-003,140,3,FALSE,right,avoid,pos,meat40_crop.jpg,2,14,TRUE,139,1,2784.5388,3,DON'T EAT                                    EAT,2783.929,2761.744,2563.3765,right,1,left,left,not_eat,not_eat,avoid,pos,avoid-pos,1,1,609.7999999998137
sub-003,141,0,FALSE,right,avoid,pos,meat32_crop.jpg,2,15,TRUE,140,1,2803.9326,3,DON'T EAT                                    EAT,2803.1113,2799.0916,2563.3765,right,1,left,left,not_eat,not_eat,avoid,pos,avoid-pos,1,1,821.3000000002794
sub-003,142,0,FALSE,right,avoid,pos,meat18_crop.jpg,2,15,TRUE,141,1,2806.2388,3,DON'T EAT                                    EAT,2805.13,2799.0916,2563.3765,right,1,left,left,not_eat,not_eat,avoid,pos,avoid-pos,1,1,1108.8000000002794
sub-003,143,0,FALSE,right,avoid,pos,meat36_crop.jpg,2,15,TRUE,142,1,2807.9583,3,DON'T EAT                                    EAT,2807.148,2799.0916,2563.3765,right,1,left,left,not_eat,not_eat,avoid,pos,avoid-pos,1,1,810.2999999998137
sub-003,144,0,FALSE,right,avoid,pos,meat7_crop.jpg,2,15,TRUE,143,1,2809.854,3,DON'T EAT                                    EAT,2809.1665,2799.0916,2563.3765,right,1,left,left,not_eat,not_eat,avoid,pos,avoid-pos,1,1,687.5
sub-003,145,0,FALSE,right,avoid,pos,meat24_crop.jpg,2,15,TRUE,144,1,2811.8054,3,DON'T EAT                                    EAT,2811.1846,2799.0916,2563.3765,right,1,left,left,not_eat,not_eat,avoid,pos,avoid-pos,1,1,620.8000000002794
sub-003,146,0,FALSE,right,avoid,pos,meat16_crop.jpg,2,15,TRUE,145,1,2813.8584,3,DON'T EAT                                    EAT,2813.2034,2799.0916,2563.3765,right,1,left,left,not_eat,not_eat,avoid,pos,avoid-pos,1,1,655
sub-003,147,0,TRUE,right,approach,neg,insect17_crop.jpg,2,15,TRUE,146,--,NA,3,DON'T EAT                                    EAT,2815.2217,2799.0916,2563.3765,right,2,NA,right,no_response,eat,avoid,pos,avoid-pos,NA,1,NA
sub-003,148,0,FALSE,right,avoid,pos,meat19_crop.jpg,2,15,TRUE,147,1,2818.0652,3,DON'T EAT                                    EAT,2817.24,2799.0916,2563.3765,right,1,left,left,not_eat,not_eat,avoid,pos,avoid-pos,1,1,825.2000000001863
sub-003,149,0,TRUE,right,approach,pos,cake38_crop.jpg,2,15,TRUE,148,--,NA,3,DON'T EAT                                    EAT,2819.2583,2799.0916,2563.3765,right,2,NA,right,no_response,eat,avoid,pos,avoid-pos,NA,1,NA
sub-003,150,0,FALSE,right,avoid,pos,meat11_crop.jpg,2,15,TRUE,149,1,2822.1526,3,DON'T EAT                                    EAT,2821.2766,2799.0916,2563.3765,right,1,left,left,not_eat,not_eat,avoid,pos,avoid-pos,1,1,876
sub-003,151,0,FALSE,left,approach,pos,cake16_crop.jpg,2,16,TRUE,150,--,NA,3,DON'T EAT                                    EAT,2839.692,2835.6716,2563.3765,right,2,NA,right,no_response,eat,approach,pos,approach-pos,NA,1,NA
sub-003,152,0,FALSE,left,approach,pos,cake20_crop.jpg,2,16,TRUE,151,--,NA,3,DON'T EAT                                    EAT,2841.7102,2835.6716,2563.3765,right,2,NA,right,no_response,eat,approach,pos,approach-pos,NA,1,NA
sub-003,153,0,FALSE,left,approach,pos,cake3_crop.jpg,2,16,TRUE,152,--,NA,3,DON'T EAT                                    EAT,2843.7285,2835.6716,2563.3765,right,2,NA,right,no_response,eat,approach,pos,approach-pos,NA,1,NA
sub-003,154,0,TRUE,left,avoid,pos,meat26_crop.jpg,2,16,TRUE,153,1,2847.0051,3,DON'T EAT                                    EAT,2845.747,2835.6716,2563.3765,right,1,left,left,not_eat,not_eat,approach,pos,approach-pos,1,1,1258.0999999996275
sub-003,155,0,FALSE,left,approach,pos,cake29_crop.jpg,2,16,TRUE,154,--,NA,3,DON'T EAT                                    EAT,2847.7651,2835.6716,2563.3765,right,2,NA,right,no_response,eat,approach,pos,approach-pos,NA,1,NA
sub-003,156,0,FALSE,left,approach,pos,cake7_crop.jpg,2,16,TRUE,155,--,NA,3,DON'T EAT                                    EAT,2849.7832,2835.6716,2563.3765,right,2,NA,right,no_response,eat,approach,pos,approach-pos,NA,1,NA
sub-003,157,0,FALSE,left,approach,pos,cake19_crop.jpg,2,16,TRUE,156,--,NA,3,DON'T EAT                                    EAT,2851.802,2835.6716,2563.3765,right,2,NA,right,no_response,eat,approach,pos,approach-pos,NA,1,NA
sub-003,158,0,TRUE,left,avoid,neg,fungus4_crop.jpg,2,16,TRUE,157,1,2854.7234,3,DON'T EAT                                    EAT,2853.8203,2835.6716,2563.3765,right,1,left,left,not_eat,not_eat,approach,pos,approach-pos,1,1,903.1000000000931
sub-003,159,0,FALSE,left,approach,pos,cake23_crop.jpg,2,16,TRUE,158,--,NA,3,DON'T EAT                                    EAT,2855.8384,2835.6716,2563.3765,right,2,NA,right,no_response,eat,approach,pos,approach-pos,NA,1,NA
sub-003,160,0,FALSE,left,approach,pos,cake32_crop.jpg,2,16,TRUE,159,--,NA,3,DON'T EAT                                    EAT,2857.857,2835.6716,2563.3765,right,2,NA,right,no_response,eat,approach,pos,approach-pos,NA,1,NA
sub-003,161,0,TRUE,left,avoid,neg,fungus8_crop.jpg,3,17,TRUE,160,1,2958.7969,3,DON'T EAT                                    EAT,2958.0564,2954.0369,2943.9653,left,1,left,left,not_eat,not_eat,approach,neg,approach-neg,1,1,740.5
sub-003,162,0,FALSE,left,approach,neg,insect23_crop.jpg,3,17,TRUE,161,--,NA,3,DON'T EAT                                    EAT,2960.0752,2954.0369,2943.9653,left,2,NA,right,no_response,eat,approach,neg,approach-neg,NA,1,NA
sub-003,163,0,FALSE,left,approach,neg,insect6_crop.jpg,3,17,TRUE,162,--,NA,3,DON'T EAT                                    EAT,2962.0938,2954.0369,2943.9653,left,2,NA,right,no_response,eat,approach,neg,approach-neg,NA,1,NA
sub-003,164,0,FALSE,left,approach,neg,insect16_crop.jpg,3,17,TRUE,163,--,NA,3,DON'T EAT                                    EAT,2964.112,2954.0369,2943.9653,left,2,NA,right,no_response,eat,approach,neg,approach-neg,NA,1,NA
sub-003,165,0,FALSE,left,approach,neg,insect11_crop.jpg,3,17,TRUE,164,--,NA,3,DON'T EAT                                    EAT,2966.1304,2954.0369,2943.9653,left,2,NA,right,no_response,eat,approach,neg,approach-neg,NA,1,NA
sub-003,166,0,FALSE,left,approach,neg,insect10_crop.jpg,3,17,TRUE,165,--,NA,3,DON'T EAT                                    EAT,2968.1484,2954.0369,2943.9653,left,2,NA,right,no_response,eat,approach,neg,approach-neg,NA,1,NA
sub-003,167,0,TRUE,left,avoid,pos,meat21_crop.jpg,3,17,TRUE,166,1,2970.8418,3,DON'T EAT                                    EAT,2970.167,2954.0369,2943.9653,left,1,left,left,not_eat,not_eat,approach,neg,approach-neg,1,1,674.8000000002794
sub-003,168,0,FALSE,left,approach,neg,insect40_crop.jpg,3,17,TRUE,167,--,NA,3,DON'T EAT                                    EAT,2972.1853,2954.0369,2943.9653,left,2,NA,right,no_response,eat,approach,neg,approach-neg,NA,1,NA
sub-003,169,0,FALSE,left,approach,neg,insect8_crop.jpg,3,17,TRUE,168,--,NA,3,DON'T EAT                                    EAT,2974.2036,2954.0369,2943.9653,left,2,NA,right,no_response,eat,approach,neg,approach-neg,NA,1,NA
sub-003,170,0,FALSE,left,approach,neg,insect36_crop.jpg,3,17,TRUE,169,--,NA,3,DON'T EAT                                    EAT,2976.2222,2954.0369,2943.9653,left,2,NA,right,no_response,eat,approach,neg,approach-neg,NA,1,NA
sub-003,171,2,FALSE,left,avoid,neg,fungus5_crop.jpg,3,18,TRUE,170,1,2995.8677,3,DON'T EAT                                    EAT,2995.0376,2991.0176,2943.9653,left,1,left,left,not_eat,not_eat,avoid,neg,avoid-neg,1,1,830.0999999996275
sub-003,172,2,FALSE,left,avoid,neg,fungus29_crop.jpg,3,18,TRUE,171,1,2998.399,3,DON'T EAT                                    EAT,2997.0557,2991.0176,2943.9653,left,1,left,left,not_eat,not_eat,avoid,neg,avoid-neg,1,1,1343.3000000002794
sub-003,173,2,FALSE,left,avoid,neg,fungus31_crop.jpg,3,18,TRUE,172,1,2999.7278,3,DON'T EAT                                    EAT,2999.0742,2991.0176,2943.9653,left,1,left,left,not_eat,not_eat,avoid,neg,avoid-neg,1,1,653.6000000000931
sub-003,174,2,FALSE,left,avoid,neg,fungus19_crop.jpg,3,18,TRUE,173,1,3001.6743,3,DON'T EAT                                    EAT,3001.0925,2991.0176,2943.9653,left,1,left,left,not_eat,not_eat,avoid,neg,avoid-neg,1,1,581.8000000002794
sub-003,175,2,TRUE,left,approach,pos,cake4_crop.jpg,3,18,TRUE,174,--,NA,3,DON'T EAT                                    EAT,3003.111,2991.0176,2943.9653,left,2,NA,right,no_response,eat,avoid,neg,avoid-neg,NA,1,NA
sub-003,176,2,FALSE,left,avoid,neg,fungus6_crop.jpg,3,18,TRUE,175,1,3005.837,3,DON'T EAT                                    EAT,3005.1294,2991.0176,2943.9653,left,1,left,left,not_eat,not_eat,avoid,neg,avoid-neg,1,1,707.6000000000931
sub-003,177,2,TRUE,left,approach,neg,insect14_crop.jpg,3,18,TRUE,176,--,NA,3,DON'T EAT                                    EAT,3007.1477,2991.0176,2943.9653,left,2,NA,right,no_response,eat,avoid,neg,avoid-neg,NA,1,NA
sub-003,178,2,FALSE,left,avoid,neg,fungus40_crop.jpg,3,18,TRUE,177,1,3009.8079,3,DON'T EAT                                    EAT,3009.166,2991.0176,2943.9653,left,1,left,left,not_eat,not_eat,avoid,neg,avoid-neg,1,1,641.8999999999069
sub-003,179,2,FALSE,left,avoid,neg,fungus24_crop.jpg,3,18,TRUE,178,1,3011.9546,3,DON'T EAT                                    EAT,3011.1843,2991.0176,2943.9653,left,1,left,left,not_eat,not_eat,avoid,neg,avoid-neg,1,1,770.3000000002794
sub-003,180,2,FALSE,left,avoid,neg,fungus3_crop.jpg,3,18,TRUE,179,1,3014.0066,3,DON'T EAT                                    EAT,3013.2026,2991.0176,2943.9653,left,1,left,left,not_eat,not_eat,avoid,neg,avoid-neg,1,1,804
sub-003,181,1,FALSE,left,avoid,pos,meat18_crop.jpg,3,19,TRUE,180,1,3034.0757,3,DON'T EAT                                    EAT,3033.1357,3029.1157,2943.9653,left,1,left,left,not_eat,not_eat,avoid,pos,avoid-pos,1,1,940
sub-003,182,1,FALSE,left,avoid,pos,meat36_crop.jpg,3,19,TRUE,181,1,3035.6907,3,DON'T EAT                                    EAT,3035.1543,3029.1157,2943.9653,left,1,left,left,not_eat,not_eat,avoid,pos,avoid-pos,1,1,536.3999999999069
sub-003,183,1,TRUE,left,approach,pos,cake6_crop.jpg,3,19,TRUE,182,--,NA,3,DON'T EAT                                    EAT,3037.1726,3029.1157,2943.9653,left,2,NA,right,no_response,eat,avoid,pos,avoid-pos,NA,1,NA
sub-003,184,1,FALSE,left,avoid,pos,meat20_crop.jpg,3,19,TRUE,183,1,3039.6558,3,DON'T EAT                                    EAT,3039.191,3029.1157,2943.9653,left,1,left,left,not_eat,not_eat,avoid,pos,avoid-pos,1,1,464.79999999981374
sub-003,185,1,FALSE,left,avoid,pos,meat15_crop.jpg,3,19,TRUE,184,1,3041.906,3,DON'T EAT                                    EAT,3041.2092,3029.1157,2943.9653,left,1,left,left,not_eat,not_eat,avoid,pos,avoid-pos,1,1,696.8000000002794
sub-003,186,1,FALSE,left,avoid,pos,meat3_crop.jpg,3,19,TRUE,185,1,3043.999,3,DON'T EAT                                    EAT,3043.2275,3029.1157,2943.9653,left,1,left,left,not_eat,not_eat,avoid,pos,avoid-pos,1,1,771.5
sub-003,187,1,FALSE,left,avoid,pos,meat13_crop.jpg,3,19,TRUE,186,1,3045.9302,3,DON'T EAT                                    EAT,3045.2458,3029.1157,2943.9653,left,1,left,left,not_eat,not_eat,avoid,pos,avoid-pos,1,1,684.3999999994412
sub-003,188,1,FALSE,left,avoid,pos,meat29_crop.jpg,3,19,TRUE,187,1,3047.981,3,DON'T EAT                                    EAT,3047.2644,3029.1157,2943.9653,left,1,left,left,not_eat,not_eat,avoid,pos,avoid-pos,1,1,716.6000000000931
sub-003,189,1,FALSE,left,avoid,pos,meat9_crop.jpg,3,19,TRUE,188,1,3050.2168,3,DON'T EAT                                    EAT,3049.2827,3029.1157,2943.9653,left,1,left,left,not_eat,not_eat,avoid,pos,avoid-pos,1,1,934.1000000000931
sub-003,190,1,TRUE,left,approach,neg,insect25_crop.jpg,3,19,TRUE,189,--,NA,3,DON'T EAT                                    EAT,3051.301,3029.1157,2943.9653,left,2,NA,right,no_response,eat,avoid,pos,avoid-pos,NA,1,NA
sub-003,191,0,TRUE,left,approach,neg,insect1_crop.jpg,3,20,TRUE,190,--,NA,3,DON'T EAT                                    EAT,3068.5146,3064.495,2943.9653,left,2,NA,right,no_response,eat,avoid,pos,avoid-pos,NA,1,NA
sub-003,192,0,FALSE,left,avoid,pos,meat39_crop.jpg,3,20,TRUE,191,1,3071.374,3,DON'T EAT                                    EAT,3070.5332,3064.495,2943.9653,left,1,left,left,not_eat,not_eat,avoid,pos,avoid-pos,1,1,840.8000000002794
sub-003,193,0,TRUE,left,approach,pos,cake5_crop.jpg,3,20,TRUE,192,--,NA,3,DON'T EAT                                    EAT,3072.5515,3064.495,2943.9653,left,2,NA,right,no_response,eat,avoid,pos,avoid-pos,NA,1,NA
sub-003,194,0,FALSE,left,avoid,pos,meat24_crop.jpg,3,20,TRUE,193,1,3075.2468,3,DON'T EAT                                    EAT,3074.5698,3064.495,2943.9653,left,1,left,left,not_eat,not_eat,avoid,pos,avoid-pos,1,1,676.9999999995343
sub-003,195,0,FALSE,left,avoid,pos,meat17_crop.jpg,3,20,TRUE,194,1,3077.3948,3,DON'T EAT                                    EAT,3076.5881,3064.495,2943.9653,left,1,left,left,not_eat,not_eat,avoid,pos,avoid-pos,1,1,806.6999999997206
sub-003,196,0,FALSE,left,avoid,pos,meat40_crop.jpg,3,20,TRUE,195,1,3079.1077,3,DON'T EAT                                    EAT,3078.6067,3064.495,2943.9653,left,1,left,left,not_eat,not_eat,avoid,pos,avoid-pos,1,1,501.00000000046566
sub-003,197,0,FALSE,left,avoid,pos,meat28_crop.jpg,3,20,TRUE,196,1,3081.2146,3,DON'T EAT                                    EAT,3080.625,3064.495,2943.9653,left,1,left,left,not_eat,not_eat,avoid,pos,avoid-pos,1,1,589.5999999996275
sub-003,198,0,FALSE,left,avoid,pos,meat37_crop.jpg,3,20,TRUE,197,1,3083.263,3,DON'T EAT                                    EAT,3082.6433,3064.495,2943.9653,left,1,left,left,not_eat,not_eat,avoid,pos,avoid-pos,1,1,619.6999999997206
sub-003,199,0,FALSE,left,avoid,pos,meat25_crop.jpg,3,20,TRUE,198,1,3085.7698,3,DON'T EAT                                    EAT,3084.6616,3064.495,2943.9653,left,1,left,left,not_eat,not_eat,avoid,pos,avoid-pos,1,1,1108.1999999997206
sub-003,200,0,FALSE,left,avoid,pos,meat8_crop.jpg,3,20,TRUE,199,1,3087.3538,3,DON'T EAT                                    EAT,3086.68,3064.495,2943.9653,left,1,left,left,not_eat,not_eat,avoid,pos,avoid-pos,1,1,673.7999999998137
sub-003,201,0,FALSE,right,approach,neg,insect38_crop.jpg,3,21,TRUE,200,--,NA,3,DON'T EAT                                    EAT,3105.9958,3101.9927,2943.9653,left,2,NA,right,no_response,eat,approach,neg,approach-neg,NA,1,NA
sub-003,202,0,TRUE,right,avoid,neg,fungus18_crop.jpg,3,21,TRUE,201,1,3108.675,3,DON'T EAT                                    EAT,3108.0144,3101.9927,2943.9653,left,1,left,left,not_eat,not_eat,approach,neg,approach-neg,1,1,660.6000000000931
sub-003,203,0,FALSE,right,approach,neg,insect33_crop.jpg,3,21,TRUE,202,--,NA,3,DON'T EAT                                    EAT,3110.0327,3101.9927,2943.9653,left,2,NA,right,no_response,eat,approach,neg,approach-neg,NA,1,NA
sub-003,204,0,FALSE,right,approach,neg,insect10_crop.jpg,3,21,TRUE,203,--,NA,3,DON'T EAT                                    EAT,3112.051,3101.9927,2943.9653,left,2,NA,right,no_response,eat,approach,neg,approach-neg,NA,1,NA
sub-003,205,0,FALSE,right,approach,neg,insect9_crop.jpg,3,21,TRUE,204,--,NA,3,DON'T EAT                                    EAT,3114.0693,3101.9927,2943.9653,left,2,NA,right,no_response,eat,approach,neg,approach-neg,NA,1,NA
sub-003,206,0,FALSE,right,approach,neg,insect36_crop.jpg,3,21,TRUE,205,--,NA,3,DON'T EAT                                    EAT,3116.0876,3101.9927,2943.9653,left,2,NA,right,no_response,eat,approach,neg,approach-neg,NA,1,NA
sub-003,207,0,FALSE,right,approach,neg,insect6_crop.jpg,3,21,TRUE,206,--,NA,3,DON'T EAT                                    EAT,3118.106,3101.9927,2943.9653,left,2,NA,right,no_response,eat,approach,neg,approach-neg,NA,1,NA
sub-003,208,0,FALSE,right,approach,neg,insect37_crop.jpg,3,21,TRUE,207,--,NA,3,DON'T EAT                                    EAT,3120.1245,3101.9927,2943.9653,left,2,NA,right,no_response,eat,approach,neg,approach-neg,NA,1,NA
sub-003,209,0,TRUE,right,avoid,pos,meat6_crop.jpg,3,21,TRUE,208,1,3122.9426,3,DON'T EAT                                    EAT,3122.1426,3101.9927,2943.9653,left,1,left,left,not_eat,not_eat,approach,neg,approach-neg,1,1,799.9999999995343
sub-003,210,0,FALSE,right,approach,neg,insect16_crop.jpg,3,21,TRUE,209,--,NA,3,DON'T EAT                                    EAT,3124.1611,3101.9927,2943.9653,left,2,NA,right,no_response,eat,approach,neg,approach-neg,NA,1,NA
sub-003,211,3,FALSE,right,approach,neg,insect3_crop.jpg,3,22,TRUE,210,--,NA,3,DON'T EAT                                    EAT,3143.3604,3139.3403,2943.9653,left,2,NA,right,no_response,eat,approach,neg,approach-neg,NA,1,NA
sub-003,212,3,FALSE,right,approach,neg,insect18_crop.jpg,3,22,TRUE,211,--,NA,3,DON'T EAT                                    EAT,3145.3787,3139.3403,2943.9653,left,2,NA,right,no_response,eat,approach,neg,approach-neg,NA,1,NA
sub-003,213,3,TRUE,right,avoid,neg,fungus24_crop.jpg,3,22,TRUE,212,1,3148.1782,3,DON'T EAT                                    EAT,3147.397,3139.3403,2943.9653,left,1,left,left,not_eat,not_eat,approach,neg,approach-neg,1,1,781.1999999997206
sub-003,214,3,TRUE,right,avoid,pos,meat5_crop.jpg,3,22,TRUE,213,1,3150.2532,3,DON'T EAT                                    EAT,3149.4155,3139.3403,2943.9653,left,1,left,left,not_eat,not_eat,approach,neg,approach-neg,1,1,837.7000000001863
sub-003,215,3,FALSE,right,approach,neg,insect39_crop.jpg,3,22,TRUE,214,--,NA,3,DON'T EAT                                    EAT,3151.4338,3139.3403,2943.9653,left,2,NA,right,no_response,eat,approach,neg,approach-neg,NA,1,NA
sub-003,216,3,FALSE,right,approach,neg,insect35_crop.jpg,3,22,TRUE,215,--,NA,3,DON'T EAT                                    EAT,3153.4521,3139.3403,2943.9653,left,2,NA,right,no_response,eat,approach,neg,approach-neg,NA,1,NA
sub-003,217,3,FALSE,right,approach,neg,insect5_crop.jpg,3,22,TRUE,216,--,NA,3,DON'T EAT                                    EAT,3155.4705,3139.3403,2943.9653,left,2,NA,right,no_response,eat,approach,neg,approach-neg,NA,1,NA
sub-003,218,3,FALSE,right,approach,neg,insect8_crop.jpg,3,22,TRUE,217,--,NA,3,DON'T EAT                                    EAT,3157.4888,3139.3403,2943.9653,left,2,NA,right,no_response,eat,approach,neg,approach-neg,NA,1,NA
sub-003,219,3,FALSE,right,approach,neg,insect7_crop.jpg,3,22,TRUE,218,--,NA,3,DON'T EAT                                    EAT,3159.507,3139.3403,2943.9653,left,2,NA,right,no_response,eat,approach,neg,approach-neg,NA,1,NA
sub-003,220,3,FALSE,right,approach,neg,insect14_crop.jpg,3,22,TRUE,219,--,NA,3,DON'T EAT                                    EAT,3161.5256,3139.3403,2943.9653,left,2,NA,right,no_response,eat,approach,neg,approach-neg,NA,1,NA
sub-003,221,3,TRUE,left,avoid,neg,fungus7_crop.jpg,3,23,TRUE,220,1,3180.863,3,DON'T EAT                                    EAT,3180.1243,3176.1042,2943.9653,left,1,left,left,not_eat,not_eat,approach,neg,approach-neg,1,1,738.7000000001863
sub-003,222,3,FALSE,left,approach,neg,insect30_crop.jpg,3,23,TRUE,221,--,NA,3,DON'T EAT                                    EAT,3182.1426,3176.1042,2943.9653,left,2,NA,right,no_response,eat,approach,neg,approach-neg,NA,1,NA
sub-003,223,3,FALSE,left,approach,neg,insect32_crop.jpg,3,23,TRUE,222,--,NA,3,DON'T EAT                                    EAT,3184.161,3176.1042,2943.9653,left,2,NA,right,no_response,eat,approach,neg,approach-neg,NA,1,NA
sub-003,224,3,FALSE,left,approach,neg,insect17_crop.jpg,3,23,TRUE,223,--,NA,3,DON'T EAT                                    EAT,3186.1792,3176.1042,2943.9653,left,2,NA,right,no_response,eat,approach,neg,approach-neg,NA,1,NA
sub-003,225,3,FALSE,left,approach,neg,insect28_crop.jpg,3,23,TRUE,224,--,NA,3,DON'T EAT                                    EAT,3188.1975,3176.1042,2943.9653,left,2,NA,right,no_response,eat,approach,neg,approach-neg,NA,1,NA
sub-003,226,3,FALSE,left,approach,neg,insect24_crop.jpg,3,23,TRUE,225,--,NA,3,DON'T EAT                                    EAT,3190.216,3176.1042,2943.9653,left,2,NA,right,no_response,eat,approach,neg,approach-neg,NA,1,NA
sub-003,227,3,TRUE,left,avoid,pos,meat34_crop.jpg,3,23,TRUE,226,1,3193.0024,3,DON'T EAT                                    EAT,3192.2341,3176.1042,2943.9653,left,1,left,left,not_eat,not_eat,approach,neg,approach-neg,1,1,768.2999999998137
sub-003,228,3,FALSE,left,approach,neg,insect31_crop.jpg,3,23,TRUE,227,--,NA,3,DON'T EAT                                    EAT,3194.2524,3176.1042,2943.9653,left,2,NA,right,no_response,eat,approach,neg,approach-neg,NA,1,NA
sub-003,229,3,FALSE,left,approach,neg,insect35_crop.jpg,3,23,TRUE,228,--,NA,3,DON'T EAT                                    EAT,3196.271,3176.1042,2943.9653,left,2,NA,right,no_response,eat,approach,neg,approach-neg,NA,1,NA
sub-003,230,3,FALSE,left,approach,neg,insect21_crop.jpg,3,23,TRUE,229,--,NA,3,DON'T EAT                                    EAT,3198.2893,3176.1042,2943.9653,left,2,NA,right,no_response,eat,approach,neg,approach-neg,NA,1,NA
sub-003,231,3,FALSE,left,avoid,neg,fungus18_crop.jpg,3,24,TRUE,230,1,3217.4556,3,DON'T EAT                                    EAT,3216.4211,3212.4011,2943.9653,left,1,left,left,not_eat,not_eat,avoid,neg,avoid-neg,1,1,1034.4999999995343
sub-003,232,3,FALSE,left,avoid,neg,fungus15_crop.jpg,3,24,TRUE,231,1,3219.2,3,DON'T EAT                                    EAT,3218.4395,3212.4011,2943.9653,left,1,left,left,not_eat,not_eat,avoid,neg,avoid-neg,1,1,760.5
sub-003,233,3,FALSE,left,avoid,neg,fungus39_crop.jpg,3,24,TRUE,232,1,3221.1409,3,DON'T EAT                                    EAT,3220.4578,3212.4011,2943.9653,left,1,left,left,not_eat,not_eat,avoid,neg,avoid-neg,1,1,683.0999999996275
sub-003,234,3,TRUE,left,approach,pos,cake34_crop.jpg,3,24,TRUE,233,--,NA,3,DON'T EAT                                    EAT,3222.476,3212.4011,2943.9653,left,2,NA,right,no_response,eat,avoid,neg,avoid-neg,NA,1,NA
sub-003,235,3,FALSE,left,avoid,neg,fungus30_crop.jpg,3,24,TRUE,234,1,3225.2031,3,DON'T EAT                                    EAT,3224.4944,3212.4011,2943.9653,left,1,left,left,not_eat,not_eat,avoid,neg,avoid-neg,1,1,708.7000000001863
sub-003,236,3,FALSE,left,avoid,neg,fungus23_crop.jpg,3,24,TRUE,235,1,3227.0188,3,DON'T EAT                                    EAT,3226.5127,3212.4011,2943.9653,left,1,left,left,not_eat,not_eat,avoid,neg,avoid-neg,1,1,506.09999999962747
sub-003,237,3,FALSE,left,avoid,neg,fungus2_crop.jpg,3,24,TRUE,236,1,3229.2317,3,DON'T EAT                                    EAT,3228.531,3212.4011,2943.9653,left,1,left,left,not_eat,not_eat,avoid,neg,avoid-neg,1,1,700.6999999997206
sub-003,238,3,TRUE,left,approach,neg,insect2_crop.jpg,3,24,TRUE,237,--,NA,3,DON'T EAT                                    EAT,3230.5496,3212.4011,2943.9653,left,2,NA,right,no_response,eat,avoid,neg,avoid-neg,NA,1,NA
sub-003,239,3,FALSE,left,avoid,neg,fungus1_crop.jpg,3,24,TRUE,238,1,3233.2021,3,DON'T EAT                                    EAT,3232.5679,3212.4011,2943.9653,left,1,left,left,not_eat,not_eat,avoid,neg,avoid-neg,1,1,634.2000000001863
sub-003,240,3,FALSE,left,avoid,neg,fungus11_crop.jpg,3,24,TRUE,239,1,3235.2222,3,DON'T EAT                                    EAT,3234.586,3212.4011,2943.9653,left,1,left,left,not_eat,not_eat,avoid,neg,avoid-neg,1,1,636.2000000001863
sub-003,241,1,FALSE,left,approach,neg,insect13_crop.jpg,4,25,TRUE,240,--,NA,3,DON'T EAT                                    EAT,3330.8162,3326.8127,3315.1536,right,2,NA,right,no_response,eat,approach,neg,approach-neg,NA,1,NA
sub-003,242,1,FALSE,left,approach,neg,insect22_crop.jpg,4,25,TRUE,241,--,NA,3,DON'T EAT                                    EAT,3332.835,3326.8127,3315.1536,right,2,NA,right,no_response,eat,approach,neg,approach-neg,NA,1,NA
sub-003,243,1,FALSE,left,approach,neg,insect15_crop.jpg,4,25,TRUE,242,--,NA,3,DON'T EAT                                    EAT,3334.8533,3326.8127,3315.1536,right,2,NA,right,no_response,eat,approach,neg,approach-neg,NA,1,NA
sub-003,244,1,FALSE,left,approach,neg,insect29_crop.jpg,4,25,TRUE,243,--,NA,3,DON'T EAT                                    EAT,3336.8716,3326.8127,3315.1536,right,2,NA,right,no_response,eat,approach,neg,approach-neg,NA,1,NA
sub-003,245,1,TRUE,left,avoid,pos,meat30_crop.jpg,4,25,TRUE,244,1,3339.671,3,DON'T EAT                                    EAT,3338.89,3326.8127,3315.1536,right,1,left,left,not_eat,not_eat,approach,neg,approach-neg,1,1,781
sub-003,246,1,FALSE,left,approach,neg,insect18_crop.jpg,4,25,TRUE,245,--,NA,3,DON'T EAT                                    EAT,3340.9082,3326.8127,3315.1536,right,2,NA,right,no_response,eat,approach,neg,approach-neg,NA,1,NA
sub-003,247,1,FALSE,left,approach,neg,insect7_crop.jpg,4,25,TRUE,246,--,NA,3,DON'T EAT                                    EAT,3342.9265,3326.8127,3315.1536,right,2,NA,right,no_response,eat,approach,neg,approach-neg,NA,1,NA
sub-003,248,1,FALSE,left,approach,neg,insect34_crop.jpg,4,25,TRUE,247,--,NA,3,DON'T EAT                                    EAT,3344.945,3326.8127,3315.1536,right,2,NA,right,no_response,eat,approach,neg,approach-neg,NA,1,NA
sub-003,249,1,FALSE,left,approach,neg,insect9_crop.jpg,4,25,TRUE,248,--,NA,3,DON'T EAT                                    EAT,3346.9634,3326.8127,3315.1536,right,2,NA,right,no_response,eat,approach,neg,approach-neg,NA,1,NA
sub-003,250,1,TRUE,left,avoid,neg,fungus36_crop.jpg,4,25,TRUE,249,1,3349.8047,3,DON'T EAT                                    EAT,3348.9814,3326.8127,3315.1536,right,1,left,left,not_eat,not_eat,approach,neg,approach-neg,1,1,823.3000000002794
sub-003,251,0,FALSE,right,approach,pos,cake7_crop.jpg,4,26,TRUE,250,--,NA,3,DON'T EAT                                    EAT,3366.8132,3362.793,3315.1536,right,2,NA,right,no_response,eat,approach,pos,approach-pos,NA,1,NA
sub-003,252,0,TRUE,right,avoid,pos,meat30_crop.jpg,4,26,TRUE,251,1,3369.5266,3,DON'T EAT                                    EAT,3368.8313,3362.793,3315.1536,right,1,left,left,not_eat,not_eat,approach,pos,approach-pos,1,1,695.3000000002794
sub-003,253,0,FALSE,right,approach,pos,cake1_crop.jpg,4,26,TRUE,252,--,NA,3,DON'T EAT                                    EAT,3370.8496,3362.793,3315.1536,right,2,NA,right,no_response,eat,approach,pos,approach-pos,NA,1,NA
sub-003,254,0,FALSE,right,approach,pos,cake18_crop.jpg,4,26,TRUE,253,--,NA,3,DON'T EAT                                    EAT,3372.8682,3362.793,3315.1536,right,2,NA,right,no_response,eat,approach,pos,approach-pos,NA,1,NA
sub-003,255,0,FALSE,right,approach,pos,cake15_crop.jpg,4,26,TRUE,254,--,NA,3,DON'T EAT                                    EAT,3374.8865,3362.793,3315.1536,right,2,NA,right,no_response,eat,approach,pos,approach-pos,NA,1,NA
sub-003,256,0,FALSE,right,approach,pos,cake37_crop.jpg,4,26,TRUE,255,--,NA,3,DON'T EAT                                    EAT,3376.9048,3362.793,3315.1536,right,2,NA,right,no_response,eat,approach,pos,approach-pos,NA,1,NA
sub-003,257,0,TRUE,right,avoid,neg,fungus29_crop.jpg,4,26,TRUE,256,1,3379.822,3,DON'T EAT                                    EAT,3378.923,3362.793,3315.1536,right,1,left,left,not_eat,not_eat,approach,pos,approach-pos,1,1,899
sub-003,258,0,FALSE,right,approach,pos,cake9_crop.jpg,4,26,TRUE,257,--,NA,3,DON'T EAT                                    EAT,3380.9417,3362.793,3315.1536,right,2,NA,right,no_response,eat,approach,pos,approach-pos,NA,1,NA
sub-003,259,0,FALSE,right,approach,pos,cake27_crop.jpg,4,26,TRUE,258,--,NA,3,DON'T EAT                                    EAT,3382.9597,3362.793,3315.1536,right,2,NA,right,no_response,eat,approach,pos,approach-pos,NA,1,NA
sub-003,260,0,FALSE,right,approach,pos,cake25_crop.jpg,4,26,TRUE,259,--,NA,3,DON'T EAT                                    EAT,3384.9783,3362.793,3315.1536,right,2,NA,right,no_response,eat,approach,pos,approach-pos,NA,1,NA
sub-003,261,1,FALSE,left,approach,pos,cake38_crop.jpg,4,27,TRUE,260,--,NA,3,DON'T EAT                                    EAT,3402.3257,3398.3057,3315.1536,right,2,NA,right,no_response,eat,approach,pos,approach-pos,NA,1,NA
sub-003,262,1,TRUE,left,avoid,neg,fungus35_crop.jpg,4,27,TRUE,261,1,3405.1047,3,DON'T EAT                                    EAT,3404.3442,3398.3057,3315.1536,right,1,left,left,not_eat,not_eat,approach,pos,approach-pos,1,1,760.4999999995343
sub-003,263,1,FALSE,left,approach,pos,cake30_crop.jpg,4,27,TRUE,262,--,NA,3,DON'T EAT                                    EAT,3406.362,3398.3057,3315.1536,right,2,NA,right,no_response,eat,approach,pos,approach-pos,NA,1,NA
sub-003,264,1,FALSE,left,approach,pos,cake40_crop.jpg,4,27,TRUE,263,--,NA,3,DON'T EAT                                    EAT,3408.381,3398.3057,3315.1536,right,2,NA,right,no_response,eat,approach,pos,approach-pos,NA,1,NA
sub-003,265,1,TRUE,left,avoid,pos,meat19_crop.jpg,4,27,TRUE,264,1,3411.1167,3,DON'T EAT                                    EAT,3410.399,3398.3057,3315.1536,right,1,left,left,not_eat,not_eat,approach,pos,approach-pos,1,1,717.7000000001863
sub-003,266,1,FALSE,left,approach,pos,cake31_crop.jpg,4,27,TRUE,265,--,NA,3,DON'T EAT                                    EAT,3412.4177,3398.3057,3315.1536,right,2,NA,right,no_response,eat,approach,pos,approach-pos,NA,1,NA
sub-003,267,1,FALSE,left,approach,pos,cake37_crop.jpg,4,27,TRUE,266,--,NA,3,DON'T EAT                                    EAT,3414.4358,3398.3057,3315.1536,right,2,NA,right,no_response,eat,approach,pos,approach-pos,NA,1,NA
sub-003,268,1,FALSE,left,approach,pos,cake14_crop.jpg,4,27,TRUE,267,--,NA,3,DON'T EAT                                    EAT,3416.4543,3398.3057,3315.1536,right,2,NA,right,no_response,eat,approach,pos,approach-pos,NA,1,NA
sub-003,269,1,FALSE,left,approach,pos,cake21_crop.jpg,4,27,TRUE,268,--,NA,3,DON'T EAT                                    EAT,3418.4727,3398.3057,3315.1536,right,2,NA,right,no_response,eat,approach,pos,approach-pos,NA,1,NA
sub-003,270,1,FALSE,left,approach,pos,cake1_crop.jpg,4,27,TRUE,269,--,NA,3,DON'T EAT                                    EAT,3420.491,3398.3057,3315.1536,right,2,NA,right,no_response,eat,approach,pos,approach-pos,NA,1,NA
sub-003,271,2,FALSE,right,avoid,neg,fungus4_crop.jpg,4,28,TRUE,270,1,3438.5947,3,DON'T EAT                                    EAT,3437.7888,3433.7688,3315.1536,right,1,left,left,not_eat,not_eat,avoid,neg,avoid-neg,1,1,805.9000000003725
sub-003,272,2,FALSE,right,avoid,neg,fungus37_crop.jpg,4,28,TRUE,271,1,3440.9326,3,DON'T EAT                                    EAT,3439.807,3433.7688,3315.1536,right,1,left,left,not_eat,not_eat,avoid,neg,avoid-neg,1,1,1125.6000000000931
sub-003,273,2,FALSE,right,avoid,neg,fungus28_crop.jpg,4,28,TRUE,272,1,3442.544,3,DON'T EAT                                    EAT,3441.8254,3433.7688,3315.1536,right,1,left,left,not_eat,not_eat,avoid,neg,avoid-neg,1,1,718.5999999996275
sub-003,274,2,FALSE,right,avoid,neg,fungus20_crop.jpg,4,28,TRUE,273,1,3444.5295,3,DON'T EAT                                    EAT,3443.8438,3433.7688,3315.1536,right,1,left,left,not_eat,not_eat,avoid,neg,avoid-neg,1,1,685.6999999997206
sub-003,275,2,FALSE,right,avoid,neg,fungus39_crop.jpg,4,28,TRUE,274,1,3446.7307,3,DON'T EAT                                    EAT,3445.862,3433.7688,3315.1536,right,1,left,left,not_eat,not_eat,avoid,neg,avoid-neg,1,1,868.7000000001863
sub-003,276,2,FALSE,right,avoid,neg,fungus5_crop.jpg,4,28,TRUE,275,1,3448.5796,3,DON'T EAT                                    EAT,3447.88,3433.7688,3315.1536,right,1,left,left,not_eat,not_eat,avoid,neg,avoid-neg,1,1,699.6000000000931
sub-003,277,2,TRUE,right,approach,neg,insect20_crop.jpg,4,28,TRUE,276,--,NA,3,DON'T EAT                                    EAT,3449.8987,3433.7688,3315.1536,right,2,NA,right,no_response,eat,avoid,neg,avoid-neg,NA,1,NA
sub-003,278,2,FALSE,right,avoid,neg,fungus21_crop.jpg,4,28,TRUE,277,1,3452.7585,3,DON'T EAT                                    EAT,3451.917,3433.7688,3315.1536,right,1,left,left,not_eat,not_eat,avoid,neg,avoid-neg,1,1,841.5
sub-003,279,2,TRUE,right,approach,pos,cake24_crop.jpg,4,28,TRUE,278,--,NA,3,DON'T EAT                                    EAT,3453.9355,3433.7688,3315.1536,right,2,NA,right,no_response,eat,avoid,neg,avoid-neg,NA,1,NA
sub-003,280,2,FALSE,right,avoid,neg,fungus19_crop.jpg,4,28,TRUE,279,1,3456.6394,3,DON'T EAT                                    EAT,3455.9539,3433.7688,3315.1536,right,1,left,left,not_eat,not_eat,avoid,neg,avoid-neg,1,1,685.5
sub-003,281,3,FALSE,left,approach,pos,cake2_crop.jpg,4,29,TRUE,280,--,NA,3,DON'T EAT                                    EAT,3473.068,3469.0479,3315.1536,right,2,NA,right,no_response,eat,approach,pos,approach-pos,NA,1,NA
sub-003,282,3,FALSE,left,approach,pos,cake8_crop.jpg,4,29,TRUE,281,--,NA,3,DON'T EAT                                    EAT,3475.0864,3469.0479,3315.1536,right,2,NA,right,no_response,eat,approach,pos,approach-pos,NA,1,NA
sub-003,283,3,TRUE,left,avoid,neg,fungus13_crop.jpg,4,29,TRUE,282,1,3478.2227,3,DON'T EAT                                    EAT,3477.1047,3469.0479,3315.1536,right,1,left,left,not_eat,not_eat,approach,pos,approach-pos,1,1,1118
sub-003,284,3,FALSE,left,approach,pos,cake13_crop.jpg,4,29,TRUE,283,--,NA,3,DON'T EAT                                    EAT,3479.123,3469.0479,3315.1536,right,2,NA,right,no_response,eat,approach,pos,approach-pos,NA,1,NA
sub-003,285,3,FALSE,left,approach,pos,cake10_crop.jpg,4,29,TRUE,284,--,NA,3,DON'T EAT                                    EAT,3481.1414,3469.0479,3315.1536,right,2,NA,right,no_response,eat,approach,pos,approach-pos,NA,1,NA
sub-003,286,3,FALSE,left,approach,pos,cake18_crop.jpg,4,29,TRUE,285,--,NA,3,DON'T EAT                                    EAT,3483.1597,3469.0479,3315.1536,right,2,NA,right,no_response,eat,approach,pos,approach-pos,NA,1,NA
sub-003,287,3,TRUE,left,avoid,pos,meat38_crop.jpg,4,29,TRUE,286,1,3485.959,3,DON'T EAT                                    EAT,3485.178,3469.0479,3315.1536,right,1,left,left,not_eat,not_eat,approach,pos,approach-pos,1,1,781
sub-003,288,3,FALSE,left,approach,pos,cake24_crop.jpg,4,29,TRUE,287,1,3487.7227,3,DON'T EAT                                    EAT,3487.1965,3469.0479,3315.1536,right,1,left,left,not_eat,not_eat,approach,pos,approach-pos,0,0,526.1999999997206
sub-003,289,3,FALSE,left,approach,pos,cake39_crop.jpg,4,29,TRUE,288,--,NA,3,DON'T EAT                                    EAT,3489.2148,3469.0479,3315.1536,right,2,NA,right,no_response,eat,approach,pos,approach-pos,NA,1,NA
sub-003,290,3,FALSE,left,approach,pos,cake17_crop.jpg,4,29,TRUE,289,--,NA,3,DON'T EAT                                    EAT,3491.2332,3469.0479,3315.1536,right,2,NA,right,no_response,eat,approach,pos,approach-pos,NA,1,NA
sub-003,291,2,TRUE,left,approach,neg,insect27_crop.jpg,4,30,TRUE,290,--,NA,3,DON'T EAT                                    EAT,3507.6301,3503.6099,3315.1536,right,2,NA,right,no_response,eat,avoid,pos,avoid-pos,NA,1,NA
sub-003,292,2,FALSE,left,avoid,pos,meat4_crop.jpg,4,30,TRUE,291,1,3510.5068,3,DON'T EAT                                    EAT,3509.6484,3503.6099,3315.1536,right,1,left,left,not_eat,not_eat,avoid,pos,avoid-pos,1,1,858.4000000003725
sub-003,293,2,FALSE,left,avoid,pos,meat1_crop.jpg,4,30,TRUE,292,1,3512.4768,3,DON'T EAT                                    EAT,3511.6665,3503.6099,3315.1536,right,1,left,left,not_eat,not_eat,avoid,pos,avoid-pos,1,1,810.2999999998137
sub-003,294,2,FALSE,left,avoid,pos,meat7_crop.jpg,4,30,TRUE,293,1,3514.4646,3,DON'T EAT                                    EAT,3513.685,3503.6099,3315.1536,right,1,left,left,not_eat,not_eat,avoid,pos,avoid-pos,1,1,779.5999999996275
sub-003,295,2,FALSE,left,avoid,pos,meat16_crop.jpg,4,30,TRUE,294,1,3516.452,3,DON'T EAT                                    EAT,3515.7034,3503.6099,3315.1536,right,1,left,left,not_eat,not_eat,avoid,pos,avoid-pos,1,1,748.6000000000931
sub-003,296,2,TRUE,left,approach,pos,cake35_crop.jpg,4,30,TRUE,295,--,NA,3,DON'T EAT                                    EAT,3517.7217,3503.6099,3315.1536,right,2,NA,right,no_response,eat,avoid,pos,avoid-pos,NA,1,NA
sub-003,297,2,FALSE,left,avoid,pos,meat35_crop.jpg,4,30,TRUE,296,1,3520.526,3,DON'T EAT                                    EAT,3519.7402,3503.6099,3315.1536,right,1,left,left,not_eat,not_eat,avoid,pos,avoid-pos,1,1,785.7999999998137
sub-003,298,2,FALSE,left,avoid,pos,meat12_crop.jpg,4,30,TRUE,297,1,3522.4114,3,DON'T EAT                                    EAT,3521.7585,3503.6099,3315.1536,right,1,left,left,not_eat,not_eat,avoid,pos,avoid-pos,1,1,652.8999999999069
sub-003,299,2,FALSE,left,avoid,pos,meat33_crop.jpg,4,30,TRUE,298,1,3524.5264,3,DON'T EAT                                    EAT,3523.7769,3503.6099,3315.1536,right,1,left,left,not_eat,not_eat,avoid,pos,avoid-pos,1,1,749.5000000004657
sub-003,300,2,FALSE,left,avoid,pos,meat22_crop.jpg,4,30,TRUE,299,1,3526.376,3,DON'T EAT                                    EAT,3525.7952,3503.6099,3315.1536,right,1,left,left,not_eat,not_eat,avoid,pos,avoid-pos,1,1,580.7999999998137
sub-003,301,1,FALSE,right,approach,pos,cake3_crop.jpg,4,31,TRUE,300,--,NA,3,DON'T EAT                                    EAT,3544.761,3540.741,3315.1536,right,2,NA,right,no_response,eat,approach,pos,approach-pos,NA,1,NA
sub-003,302,1,FALSE,right,approach,pos,cake23_crop.jpg,4,31,TRUE,301,--,NA,3,DON'T EAT                                    EAT,3546.7793,3540.741,3315.1536,right,2,NA,right,no_response,eat,approach,pos,approach-pos,NA,1,NA
sub-003,303,1,TRUE,right,avoid,pos,meat33_crop.jpg,4,31,TRUE,302,1,3549.6409,3,DON'T EAT                                    EAT,3548.7976,3540.741,3315.1536,right,1,left,left,not_eat,not_eat,approach,pos,approach-pos,1,1,843.2999999998137
sub-003,304,1,FALSE,right,approach,pos,cake31_crop.jpg,4,31,TRUE,303,--,NA,3,DON'T EAT                                    EAT,3550.8157,3540.741,3315.1536,right,2,NA,right,no_response,eat,approach,pos,approach-pos,NA,1,NA
sub-003,305,1,FALSE,right,approach,pos,cake5_crop.jpg,4,31,TRUE,304,--,NA,3,DON'T EAT                                    EAT,3552.8342,3540.741,3315.1536,right,2,NA,right,no_response,eat,approach,pos,approach-pos,NA,1,NA
sub-003,306,1,TRUE,right,avoid,neg,fungus25_crop.jpg,4,31,TRUE,305,1,3555.5813,3,DON'T EAT                                    EAT,3554.8525,3540.741,3315.1536,right,1,left,left,not_eat,not_eat,approach,pos,approach-pos,1,1,728.7999999998137
sub-003,307,1,FALSE,right,approach,pos,cake19_crop.jpg,4,31,TRUE,306,--,NA,3,DON'T EAT                                    EAT,3556.871,3540.741,3315.1536,right,2,NA,right,no_response,eat,approach,pos,approach-pos,NA,1,NA
sub-003,308,1,FALSE,right,approach,pos,cake36_crop.jpg,4,31,TRUE,307,--,NA,3,DON'T EAT                                    EAT,3558.8887,3540.741,3315.1536,right,2,NA,right,no_response,eat,approach,pos,approach-pos,NA,1,NA
sub-003,309,1,FALSE,right,approach,pos,cake22_crop.jpg,4,31,TRUE,308,--,NA,3,DON'T EAT                                    EAT,3560.9077,3540.741,3315.1536,right,2,NA,right,no_response,eat,approach,pos,approach-pos,NA,1,NA
sub-003,310,1,FALSE,right,approach,pos,cake6_crop.jpg,4,31,TRUE,309,--,NA,3,DON'T EAT                                    EAT,3562.9258,3540.741,3315.1536,right,2,NA,right,no_response,eat,approach,pos,approach-pos,NA,1,NA
sub-003,311,0,FALSE,right,avoid,neg,fungus26_crop.jpg,4,32,TRUE,310,1,3582.333,3,DON'T EAT                                    EAT,3581.6248,3577.6045,3315.1536,right,1,left,left,not_eat,not_eat,avoid,neg,avoid-neg,1,1,708.1999999997206
sub-003,312,0,FALSE,right,avoid,neg,fungus13_crop.jpg,4,32,TRUE,311,1,3584.16,3,DON'T EAT                                    EAT,3583.6433,3577.6045,3315.1536,right,1,left,left,not_eat,not_eat,avoid,neg,avoid-neg,1,1,516.6999999997206
sub-003,313,0,FALSE,right,avoid,neg,fungus36_crop.jpg,4,32,TRUE,312,1,3586.4412,3,DON'T EAT                                    EAT,3585.6616,3577.6045,3315.1536,right,1,left,left,not_eat,not_eat,avoid,neg,avoid-neg,1,1,779.6000000000931
sub-003,314,0,TRUE,right,approach,neg,insect23_crop.jpg,4,32,TRUE,313,--,NA,3,DON'T EAT                                    EAT,3587.68,3577.6045,3315.1536,right,2,NA,right,no_response,eat,avoid,neg,avoid-neg,NA,1,NA
sub-003,315,0,FALSE,right,avoid,neg,fungus15_crop.jpg,4,32,TRUE,314,1,3590.436,3,DON'T EAT                                    EAT,3589.698,3577.6045,3315.1536,right,1,left,left,not_eat,not_eat,avoid,neg,avoid-neg,1,1,738
sub-003,316,0,FALSE,right,avoid,neg,fungus12_crop.jpg,4,32,TRUE,315,1,3592.4346,3,DON'T EAT                                    EAT,3591.7166,3577.6045,3315.1536,right,1,left,left,not_eat,not_eat,avoid,neg,avoid-neg,1,1,718
sub-003,317,0,TRUE,right,approach,pos,cake17_crop.jpg,4,32,TRUE,316,--,NA,3,DON'T EAT                                    EAT,3593.7349,3577.6045,3315.1536,right,2,NA,right,no_response,eat,avoid,neg,avoid-neg,NA,1,NA
sub-003,318,0,FALSE,right,avoid,neg,fungus9_crop.jpg,4,32,TRUE,317,1,3596.4392,3,DON'T EAT                                    EAT,3595.7534,3577.6045,3315.1536,right,1,left,left,not_eat,not_eat,avoid,neg,avoid-neg,1,1,685.7999999998137
sub-003,319,0,FALSE,right,avoid,neg,fungus7_crop.jpg,4,32,TRUE,318,1,3598.5957,3,DON'T EAT                                    EAT,3597.7717,3577.6045,3315.1536,right,1,left,left,not_eat,not_eat,avoid,neg,avoid-neg,1,1,824
sub-003,320,0,FALSE,right,avoid,neg,fungus33_crop.jpg,4,32,TRUE,319,1,3600.4485,3,DON'T EAT                                    EAT,3599.79,3577.6045,3315.1536,right,1,left,left,not_eat,not_eat,avoid,neg,avoid-neg,1,1,658.5
