TrialNumber,run_number,val,n_block,mot,stim_name,num_block,catch,hand,ran,order,response,RT,Subject number,n_b,left_side_resp_label,trial_onset,blk_instr_onset,baseline_onset
1,1.0,pos,1,approach,cake9_crop.jpg,1.0,False,right,1.0,0.0,3,2268.74,1.0,1.0,DON'T EAT                                    EAT,2266.94,2262.92,2249.4
2,1.0,pos,1,avoid,meat20_crop.jpg,1.0,True,right,1.0,1.0,3,2270.76,1.0,1.0,DON'T EAT                                    EAT,2268.96,2262.92,2249.4
3,1.0,pos,1,approach,cake8_crop.jpg,1.0,False,right,1.0,2.0,1,2272.77,1.0,1.0,DON'T EAT                                    EAT,2270.97,2262.92,2249.4
4,1.0,pos,1,approach,cake40_crop.jpg,1.0,False,right,1.0,3.0,1,2274.79,1.0,1.0,DON'T EAT                                    EAT,2272.99,2262.92,2249.4
5,1.0,pos,1,approach,cake29_crop.jpg,1.0,False,right,1.0,4.0,1,2276.81,1.0,1.0,DON'T EAT                                    EAT,2275.01,2262.92,2249.4
6,1.0,pos,1,approach,cake39_crop.jpg,1.0,False,right,1.0,5.0,1,2278.82,1.0,1.0,DON'T EAT                                    EAT,2277.02,2262.92,2249.4
7,1.0,pos,1,approach,cake32_crop.jpg,1.0,False,right,1.0,6.0,1,2280.84,1.0,1.0,DON'T EAT                                    EAT,2279.04,2262.92,2249.4
8,1.0,pos,1,approach,cake25_crop.jpg,1.0,False,right,1.0,7.0,1,2282.86,1.0,1.0,DON'T EAT                                    EAT,2281.06,2262.92,2249.4
9,1.0,neg,1,avoid,fungus16_crop.jpg,1.0,True,right,1.0,8.0,1,2284.86,1.0,1.0,DON'T EAT                                    EAT,2283.07,2262.92,2249.4
10,1.0,pos,1,approach,cake14_crop.jpg,1.0,False,right,1.0,9.0,1,2286.89,1.0,1.0,DON'T EAT                                    EAT,2285.09,2262.92,2249.4
11,1.0,pos,0,avoid,meat37_crop.jpg,2.0,False,right,1.0,10.0,3,2305.75,1.0,2.0,DON'T EAT                                    EAT,2303.96,2299.94,2249.4
12,1.0,pos,0,avoid,meat39_crop.jpg,2.0,False,right,1.0,11.0,3,2307.76,1.0,2.0,DON'T EAT                                    EAT,2305.97,2299.94,2249.4
13,1.0,pos,0,avoid,meat22_crop.jpg,2.0,False,right,1.0,12.0,3,2309.78,1.0,2.0,DON'T EAT                                    EAT,2307.99,2299.94,2249.4
14,1.0,pos,0,avoid,meat2_crop.jpg,2.0,False,right,1.0,13.0,3,2311.8,1.0,2.0,DON'T EAT                                    EAT,2310.0,2299.94,2249.4
15,1.0,pos,0,avoid,meat13_crop.jpg,2.0,False,right,1.0,14.0,3,2313.81,1.0,2.0,DON'T EAT                                    EAT,2312.02,2299.94,2249.4
16,1.0,neg,0,approach,insect38_crop.jpg,2.0,True,right,1.0,15.0,1,2315.83,1.0,2.0,DON'T EAT                                    EAT,2314.04,2299.94,2249.4
17,1.0,pos,0,avoid,meat27_crop.jpg,2.0,False,right,1.0,16.0,3,2317.85,1.0,2.0,DON'T EAT                                    EAT,2316.05,2299.94,2249.4
18,1.0,pos,0,avoid,meat35_crop.jpg,2.0,False,right,1.0,17.0,3,2319.86,1.0,2.0,DON'T EAT                                    EAT,2318.07,2299.94,2249.4
19,1.0,pos,0,approach,cake7_crop.jpg,2.0,True,right,1.0,18.0,1,2321.88,1.0,2.0,DON'T EAT                                    EAT,2320.09,2299.94,2249.4
20,1.0,pos,0,avoid,meat1_crop.jpg,2.0,False,right,1.0,19.0,1,2323.9,1.0,2.0,DON'T EAT                                    EAT,2322.1,2299.94,2249.4
21,1.0,pos,3,avoid,meat26_crop.jpg,3.0,False,left,1.0,20.0,3,2342.0,1.0,3.0,DON'T EAT                                    EAT,2340.2,2336.19,2249.4
22,1.0,pos,3,avoid,meat1_crop.jpg,3.0,False,left,1.0,21.0,3,2344.01,1.0,3.0,DON'T EAT                                    EAT,2342.22,2336.19,2249.4
23,1.0,pos,3,avoid,meat20_crop.jpg,3.0,False,left,1.0,22.0,3,2346.03,1.0,3.0,DON'T EAT                                    EAT,2344.24,2336.19,2249.4
24,1.0,pos,3,avoid,meat14_crop.jpg,3.0,False,left,1.0,23.0,3,2348.05,1.0,3.0,DON'T EAT                                    EAT,2346.25,2336.19,2249.4
25,1.0,pos,3,avoid,meat27_crop.jpg,3.0,False,left,1.0,24.0,3,2350.06,1.0,3.0,DON'T EAT                                    EAT,2348.27,2336.19,2249.4
26,1.0,pos,3,avoid,meat31_crop.jpg,3.0,False,left,1.0,25.0,3,2352.08,1.0,3.0,DON'T EAT                                    EAT,2350.29,2336.19,2249.4
27,1.0,pos,3,approach,cake38_crop.jpg,3.0,True,left,1.0,26.0,1,2354.1,1.0,3.0,DON'T EAT                                    EAT,2352.3,2336.19,2249.4
28,1.0,neg,3,approach,insect34_crop.jpg,3.0,True,left,1.0,27.0,1,2356.11,1.0,3.0,DON'T EAT                                    EAT,2354.32,2336.19,2249.4
29,1.0,pos,3,avoid,meat13_crop.jpg,3.0,False,left,1.0,28.0,3,2358.13,1.0,3.0,DON'T EAT                                    EAT,2356.34,2336.19,2249.4
30,1.0,pos,3,avoid,meat39_crop.jpg,3.0,False,left,1.0,29.0,3,2360.14,1.0,3.0,DON'T EAT                                    EAT,2358.35,2336.19,2249.4
31,1.0,pos,2,avoid,meat38_crop.jpg,4.0,True,right,1.0,30.0,3,2377.43,1.0,4.0,DON'T EAT                                    EAT,2375.63,2371.62,2249.4
32,1.0,neg,2,approach,insect27_crop.jpg,4.0,False,right,1.0,31.0,1,2379.44,1.0,4.0,DON'T EAT                                    EAT,2377.65,2371.62,2249.4
33,1.0,neg,2,approach,insect33_crop.jpg,4.0,False,right,1.0,32.0,1,2381.46,1.0,4.0,DON'T EAT                                    EAT,2379.67,2371.62,2249.4
34,1.0,neg,2,approach,insect4_crop.jpg,4.0,False,right,1.0,33.0,1,2383.48,1.0,4.0,DON'T EAT                                    EAT,2381.68,2371.62,2249.4
35,1.0,neg,2,approach,insect29_crop.jpg,4.0,False,right,1.0,34.0,1,2385.49,1.0,4.0,DON'T EAT                                    EAT,2383.7,2371.62,2249.4
36,1.0,neg,2,approach,insect2_crop.jpg,4.0,False,right,1.0,35.0,1,2387.51,1.0,4.0,DON'T EAT                                    EAT,2385.72,2371.62,2249.4
37,1.0,neg,2,approach,insect32_crop.jpg,4.0,False,right,1.0,36.0,1,2389.53,1.0,4.0,DON'T EAT                                    EAT,2387.73,2371.62,2249.4
38,1.0,neg,2,avoid,fungus7_crop.jpg,4.0,True,right,1.0,37.0,3,2391.54,1.0,4.0,DON'T EAT                                    EAT,2389.75,2371.62,2249.4
39,1.0,neg,2,approach,insect13_crop.jpg,4.0,False,right,1.0,38.0,1,2393.56,1.0,4.0,DON'T EAT                                    EAT,2391.77,2371.62,2249.4
40,1.0,neg,2,approach,insect20_crop.jpg,4.0,False,right,1.0,39.0,1,2395.58,1.0,4.0,DON'T EAT                                    EAT,2393.78,2371.62,2249.4
41,1.0,neg,0,approach,insect11_crop.jpg,5.0,False,right,1.0,40.0,1,2411.93,1.0,5.0,DON'T EAT                                    EAT,2410.13,2406.12,2249.4
42,1.0,neg,0,approach,insect34_crop.jpg,5.0,False,right,1.0,41.0,1,2413.94,1.0,5.0,DON'T EAT                                    EAT,2412.15,2406.12,2249.4
43,1.0,neg,0,approach,insect17_crop.jpg,5.0,False,right,1.0,42.0,1,2415.96,1.0,5.0,DON'T EAT                                    EAT,2414.17,2406.12,2249.4
44,1.0,pos,0,avoid,meat36_crop.jpg,5.0,True,right,1.0,43.0,1,2417.98,1.0,5.0,DON'T EAT                                    EAT,2416.18,2406.12,2249.4
45,1.0,neg,0,avoid,fungus10_crop.jpg,5.0,True,right,1.0,44.0,3,2419.99,1.0,5.0,DON'T EAT                                    EAT,2418.2,2406.12,2249.4
46,1.0,neg,0,approach,insect23_crop.jpg,5.0,False,right,1.0,45.0,1,2422.01,1.0,5.0,DON'T EAT                                    EAT,2420.21,2406.12,2249.4
47,1.0,neg,0,approach,insect40_crop.jpg,5.0,False,right,1.0,46.0,1,2424.03,1.0,5.0,DON'T EAT                                    EAT,2422.23,2406.12,2249.4
48,1.0,neg,0,approach,insect28_crop.jpg,5.0,False,right,1.0,47.0,1,2426.04,1.0,5.0,DON'T EAT                                    EAT,2424.25,2406.12,2249.4
49,1.0,neg,0,approach,insect31_crop.jpg,5.0,False,right,1.0,48.0,1,2428.06,1.0,5.0,DON'T EAT                                    EAT,2426.26,2406.12,2249.4
50,1.0,neg,0,approach,insect25_crop.jpg,5.0,False,right,1.0,49.0,1,2430.08,1.0,5.0,DON'T EAT                                    EAT,2428.28,2406.12,2249.4
51,1.0,neg,1,avoid,fungus34_crop.jpg,6.0,False,right,1.0,50.0,3,2448.41,1.0,6.0,DON'T EAT                                    EAT,2446.61,2442.6,2249.4
52,1.0,neg,1,avoid,fungus9_crop.jpg,6.0,False,right,1.0,51.0,3,2450.43,1.0,6.0,DON'T EAT                                    EAT,2448.63,2442.6,2249.4
53,1.0,neg,1,avoid,fungus19_crop.jpg,6.0,False,right,1.0,52.0,3,2452.44,1.0,6.0,DON'T EAT                                    EAT,2450.65,2442.6,2249.4
54,1.0,neg,1,avoid,fungus35_crop.jpg,6.0,False,right,1.0,53.0,3,2454.46,1.0,6.0,DON'T EAT                                    EAT,2452.66,2442.6,2249.4
55,1.0,neg,1,avoid,fungus23_crop.jpg,6.0,False,right,1.0,54.0,3,2456.48,1.0,6.0,DON'T EAT                                    EAT,2454.68,2442.6,2249.4
56,1.0,neg,1,approach,insect16_crop.jpg,6.0,True,right,1.0,55.0,1,2458.49,1.0,6.0,DON'T EAT                                    EAT,2456.7,2442.6,2249.4
57,1.0,neg,1,avoid,fungus6_crop.jpg,6.0,False,right,1.0,56.0,3,2460.51,1.0,6.0,DON'T EAT                                    EAT,2458.71,2442.6,2249.4
58,1.0,pos,1,approach,cake26_crop.jpg,6.0,True,right,1.0,57.0,1,2462.53,1.0,6.0,DON'T EAT                                    EAT,2460.73,2442.6,2249.4
59,1.0,neg,1,avoid,fungus22_crop.jpg,6.0,False,right,1.0,58.0,3,2464.54,1.0,6.0,DON'T EAT                                    EAT,2462.75,2442.6,2249.4
60,1.0,neg,1,avoid,fungus2_crop.jpg,6.0,False,right,1.0,59.0,3,2466.56,1.0,6.0,DON'T EAT                                    EAT,2464.76,2442.6,2249.4
61,1.0,neg,3,avoid,fungus24_crop.jpg,7.0,False,left,1.0,60.0,3,2483.81,1.0,7.0,DON'T EAT                                    EAT,2482.01,2477.99,2249.4
62,1.0,neg,3,avoid,fungus37_crop.jpg,7.0,False,left,1.0,61.0,3,2485.82,1.0,7.0,DON'T EAT                                    EAT,2484.03,2477.99,2249.4
63,1.0,pos,3,approach,cake19_crop.jpg,7.0,True,left,1.0,62.0,1,2487.84,1.0,7.0,DON'T EAT                                    EAT,2486.04,2477.99,2249.4
64,1.0,neg,3,avoid,fungus18_crop.jpg,7.0,False,left,1.0,63.0,3,2489.86,1.0,7.0,DON'T EAT                                    EAT,2488.06,2477.99,2249.4
65,1.0,neg,3,avoid,fungus10_crop.jpg,7.0,False,left,1.0,64.0,3,2491.87,1.0,7.0,DON'T EAT                                    EAT,2490.08,2477.99,2249.4
66,1.0,neg,3,avoid,fungus1_crop.jpg,7.0,False,left,1.0,65.0,3,2493.89,1.0,7.0,DON'T EAT                                    EAT,2492.09,2477.99,2249.4
67,1.0,neg,3,approach,insect29_crop.jpg,7.0,True,left,1.0,66.0,1,2495.91,1.0,7.0,DON'T EAT                                    EAT,2494.11,2477.99,2249.4
68,1.0,neg,3,avoid,fungus5_crop.jpg,7.0,False,left,1.0,67.0,3,2497.92,1.0,7.0,DON'T EAT                                    EAT,2496.13,2477.99,2249.4
69,1.0,neg,3,avoid,fungus19_crop.jpg,7.0,False,left,1.0,68.0,3,2499.94,1.0,7.0,DON'T EAT                                    EAT,2498.14,2477.99,2249.4
70,1.0,neg,3,avoid,fungus13_crop.jpg,7.0,False,left,1.0,69.0,3,2501.96,1.0,7.0,DON'T EAT                                    EAT,2500.16,2477.99,2249.4
71,1.0,neg,2,avoid,fungus28_crop.jpg,8.0,False,left,1.0,70.0,3,2519.22,1.0,8.0,DON'T EAT                                    EAT,2517.43,2513.41,2249.4
72,1.0,neg,2,avoid,fungus22_crop.jpg,8.0,False,left,1.0,71.0,3,2521.24,1.0,8.0,DON'T EAT                                    EAT,2519.44,2513.41,2249.4
73,1.0,neg,2,avoid,fungus12_crop.jpg,8.0,False,left,1.0,72.0,3,2523.26,1.0,8.0,DON'T EAT                                    EAT,2521.46,2513.41,2249.4
74,1.0,neg,2,avoid,fungus40_crop.jpg,8.0,False,left,1.0,73.0,3,2525.27,1.0,8.0,DON'T EAT                                    EAT,2523.47,2513.41,2249.4
75,1.0,neg,2,avoid,fungus21_crop.jpg,8.0,False,left,1.0,74.0,3,2527.29,1.0,8.0,DON'T EAT                                    EAT,2525.49,2513.41,2249.4
76,1.0,neg,2,avoid,fungus20_crop.jpg,8.0,False,left,1.0,75.0,3,2529.31,1.0,8.0,DON'T EAT                                    EAT,2527.51,2513.41,2249.4
77,1.0,neg,2,approach,insect15_crop.jpg,8.0,True,left,1.0,76.0,1,2531.32,1.0,8.0,DON'T EAT                                    EAT,2529.52,2513.41,2249.4
78,1.0,pos,2,approach,cake21_crop.jpg,8.0,True,left,1.0,77.0,3,2533.34,1.0,8.0,DON'T EAT                                    EAT,2531.54,2513.41,2249.4
79,1.0,neg,2,avoid,fungus30_crop.jpg,8.0,False,left,1.0,78.0,3,2535.36,1.0,8.0,DON'T EAT                                    EAT,2533.56,2513.41,2249.4
80,1.0,neg,2,avoid,fungus17_crop.jpg,8.0,False,left,1.0,79.0,3,2537.37,1.0,8.0,DON'T EAT                                    EAT,2535.57,2513.41,2249.4
81,2.0,neg,2,avoid,fungus30_crop.jpg,9.0,False,right,1.0,80.0,3,2629.46,1.0,9.0,DON'T EAT                                    EAT,2627.67,2623.65,2612.87
82,2.0,neg,2,avoid,fungus5_crop.jpg,9.0,False,right,1.0,81.0,3,2631.48,1.0,9.0,DON'T EAT                                    EAT,2629.68,2623.65,2612.87
83,2.0,neg,2,avoid,fungus40_crop.jpg,9.0,False,right,1.0,82.0,3,2633.49,1.0,9.0,DON'T EAT                                    EAT,2631.7,2623.65,2612.87
84,2.0,pos,2,approach,cake21_crop.jpg,9.0,True,right,1.0,83.0,1,2635.51,1.0,9.0,DON'T EAT                                    EAT,2633.72,2623.65,2612.87
85,2.0,neg,2,avoid,fungus4_crop.jpg,9.0,False,right,1.0,84.0,3,2637.53,1.0,9.0,DON'T EAT                                    EAT,2635.73,2623.65,2612.87
86,2.0,neg,2,avoid,fungus11_crop.jpg,9.0,False,right,1.0,85.0,3,2639.54,1.0,9.0,DON'T EAT                                    EAT,2637.75,2623.65,2612.87
87,2.0,neg,2,approach,insect3_crop.jpg,9.0,True,right,1.0,86.0,3,2641.56,1.0,9.0,DON'T EAT                                    EAT,2639.77,2623.65,2612.87
88,2.0,neg,2,avoid,fungus17_crop.jpg,9.0,False,right,1.0,87.0,3,2643.58,1.0,9.0,DON'T EAT                                    EAT,2641.78,2623.65,2612.87
89,2.0,neg,2,avoid,fungus29_crop.jpg,9.0,False,right,1.0,88.0,3,2645.59,1.0,9.0,DON'T EAT                                    EAT,2643.8,2623.65,2612.87
90,2.0,neg,2,avoid,fungus14_crop.jpg,9.0,False,right,1.0,89.0,3,2647.61,1.0,9.0,DON'T EAT                                    EAT,2645.82,2623.65,2612.87
91,2.0,neg,2,approach,insect30_crop.jpg,10.0,False,left,1.0,90.0,1,2665.36,1.0,10.0,DON'T EAT                                    EAT,2663.57,2659.55,2612.87
92,2.0,neg,2,approach,insect8_crop.jpg,10.0,False,left,1.0,91.0,1,2667.38,1.0,10.0,DON'T EAT                                    EAT,2665.58,2659.55,2612.87
93,2.0,neg,2,approach,insect18_crop.jpg,10.0,False,left,1.0,92.0,1,2669.39,1.0,10.0,DON'T EAT                                    EAT,2667.6,2659.55,2612.87
94,2.0,neg,2,approach,insect23_crop.jpg,10.0,False,left,1.0,93.0,1,2671.41,1.0,10.0,DON'T EAT                                    EAT,2669.62,2659.55,2612.87
95,2.0,neg,2,avoid,fungus31_crop.jpg,10.0,True,left,1.0,94.0,1,2673.43,1.0,10.0,DON'T EAT                                    EAT,2671.63,2659.55,2612.87
96,2.0,neg,2,approach,insect13_crop.jpg,10.0,False,left,1.0,95.0,1,2675.44,1.0,10.0,DON'T EAT                                    EAT,2673.65,2659.55,2612.87
97,2.0,pos,2,avoid,meat24_crop.jpg,10.0,True,left,1.0,96.0,3,2677.46,1.0,10.0,DON'T EAT                                    EAT,2675.67,2659.55,2612.87
98,2.0,neg,2,approach,insect39_crop.jpg,10.0,False,left,1.0,97.0,1,2679.48,1.0,10.0,DON'T EAT                                    EAT,2677.68,2659.55,2612.87
99,2.0,neg,2,approach,insect36_crop.jpg,10.0,False,left,1.0,98.0,1,2681.49,1.0,10.0,DON'T EAT                                    EAT,2679.7,2659.55,2612.87
100,2.0,neg,2,approach,insect9_crop.jpg,10.0,False,left,1.0,99.0,1,2683.51,1.0,10.0,DON'T EAT                                    EAT,2681.72,2659.55,2612.87
101,2.0,neg,1,avoid,fungus26_crop.jpg,11.0,False,left,1.0,100.0,3,2702.61,1.0,11.0,DON'T EAT                                    EAT,2700.81,2696.8,2612.87
102,2.0,neg,1,approach,insect32_crop.jpg,11.0,True,left,1.0,101.0,1,2704.63,1.0,11.0,DON'T EAT                                    EAT,2702.83,2696.8,2612.87
103,2.0,neg,1,avoid,fungus32_crop.jpg,11.0,False,left,1.0,102.0,3,2706.64,1.0,11.0,DON'T EAT                                    EAT,2704.85,2696.8,2612.87
104,2.0,neg,1,avoid,fungus35_crop.jpg,11.0,False,left,1.0,103.0,3,2708.66,1.0,11.0,DON'T EAT                                    EAT,2706.86,2696.8,2612.87
105,2.0,pos,1,approach,cake18_crop.jpg,11.0,True,left,1.0,104.0,1,2710.68,1.0,11.0,DON'T EAT                                    EAT,2708.88,2696.8,2612.87
106,2.0,neg,1,avoid,fungus25_crop.jpg,11.0,False,left,1.0,105.0,1,2712.69,1.0,11.0,DON'T EAT                                    EAT,2710.9,2696.8,2612.87
107,2.0,neg,1,avoid,fungus15_crop.jpg,11.0,False,left,1.0,106.0,3,2714.71,1.0,11.0,DON'T EAT                                    EAT,2712.91,2696.8,2612.87
108,2.0,neg,1,avoid,fungus23_crop.jpg,11.0,False,left,1.0,107.0,3,2716.73,1.0,11.0,DON'T EAT                                    EAT,2714.93,2696.8,2612.87
109,2.0,neg,1,avoid,fungus7_crop.jpg,11.0,False,left,1.0,108.0,3,2718.74,1.0,11.0,DON'T EAT                                    EAT,2716.95,2696.8,2612.87
110,2.0,neg,1,avoid,fungus27_crop.jpg,11.0,False,left,1.0,109.0,3,2720.76,1.0,11.0,DON'T EAT                                    EAT,2718.96,2696.8,2612.87
111,2.0,neg,0,avoid,fungus26_crop.jpg,12.0,False,right,1.0,110.0,3,2737.96,1.0,12.0,DON'T EAT                                    EAT,2736.16,2732.15,2612.87
112,2.0,neg,0,approach,insect19_crop.jpg,12.0,True,right,1.0,111.0,1,2739.97,1.0,12.0,DON'T EAT                                    EAT,2738.18,2732.15,2612.87
113,2.0,neg,0,avoid,fungus8_crop.jpg,12.0,False,right,1.0,112.0,3,2741.99,1.0,12.0,DON'T EAT                                    EAT,2740.19,2732.15,2612.87
114,2.0,neg,0,avoid,fungus20_crop.jpg,12.0,False,right,1.0,113.0,3,2744.01,1.0,12.0,DON'T EAT                                    EAT,2742.21,2732.15,2612.87
115,2.0,pos,0,approach,cake24_crop.jpg,12.0,True,right,1.0,114.0,1,2746.02,1.0,12.0,DON'T EAT                                    EAT,2744.23,2732.15,2612.87
116,2.0,neg,0,avoid,fungus24_crop.jpg,12.0,False,right,1.0,115.0,3,2748.04,1.0,12.0,DON'T EAT                                    EAT,2746.24,2732.15,2612.87
117,2.0,neg,0,avoid,fungus13_crop.jpg,12.0,False,right,1.0,116.0,3,2750.06,1.0,12.0,DON'T EAT                                    EAT,2748.26,2732.15,2612.87
118,2.0,neg,0,avoid,fungus36_crop.jpg,12.0,False,right,1.0,117.0,3,2752.07,1.0,12.0,DON'T EAT                                    EAT,2750.28,2732.15,2612.87
119,2.0,neg,0,avoid,fungus31_crop.jpg,12.0,False,right,1.0,118.0,3,2754.09,1.0,12.0,DON'T EAT                                    EAT,2752.29,2732.15,2612.87
120,2.0,neg,0,avoid,fungus28_crop.jpg,12.0,False,right,1.0,119.0,3,2756.11,1.0,12.0,DON'T EAT                                    EAT,2754.31,2732.15,2612.87
121,2.0,pos,3,avoid,meat18_crop.jpg,13.0,False,right,1.0,120.0,3,2774.32,1.0,13.0,DON'T EAT                                    EAT,2772.53,2768.51,2612.87
122,2.0,pos,3,avoid,meat29_crop.jpg,13.0,False,right,1.0,121.0,3,2776.34,1.0,13.0,DON'T EAT                                    EAT,2774.54,2768.51,2612.87
123,2.0,pos,3,avoid,meat5_crop.jpg,13.0,False,right,1.0,122.0,3,2778.36,1.0,13.0,DON'T EAT                                    EAT,2776.56,2768.51,2612.87
124,2.0,pos,3,approach,cake30_crop.jpg,13.0,True,right,1.0,123.0,1,2780.37,1.0,13.0,DON'T EAT                                    EAT,2778.58,2768.51,2612.87
125,2.0,pos,3,avoid,meat4_crop.jpg,13.0,False,right,1.0,124.0,1,2782.39,1.0,13.0,DON'T EAT                                    EAT,2780.59,2768.51,2612.87
126,2.0,neg,3,approach,insect39_crop.jpg,13.0,True,right,1.0,125.0,1,2784.41,1.0,13.0,DON'T EAT                                    EAT,2782.61,2768.51,2612.87
127,2.0,pos,3,avoid,meat12_crop.jpg,13.0,False,right,1.0,126.0,3,2786.42,1.0,13.0,DON'T EAT                                    EAT,2784.63,2768.51,2612.87
128,2.0,pos,3,avoid,meat7_crop.jpg,13.0,False,right,1.0,127.0,3,2788.44,1.0,13.0,DON'T EAT                                    EAT,2786.64,2768.51,2612.87
129,2.0,pos,3,avoid,meat40_crop.jpg,13.0,False,right,1.0,128.0,3,2790.46,1.0,13.0,DON'T EAT                                    EAT,2788.66,2768.51,2612.87
130,2.0,pos,3,avoid,meat10_crop.jpg,13.0,False,right,1.0,129.0,3,2792.47,1.0,13.0,DON'T EAT                                    EAT,2790.67,2768.51,2612.87
131,2.0,pos,2,avoid,meat33_crop.jpg,14.0,False,left,1.0,130.0,3,2812.37,1.0,14.0,DON'T EAT                                    EAT,2810.57,2806.56,2612.87
132,2.0,neg,2,approach,insect27_crop.jpg,14.0,True,left,1.0,131.0,1,2814.39,1.0,14.0,DON'T EAT                                    EAT,2812.59,2806.56,2612.87
133,2.0,pos,2,avoid,meat18_crop.jpg,14.0,False,left,1.0,132.0,3,2816.41,1.0,14.0,DON'T EAT                                    EAT,2814.61,2806.56,2612.87
134,2.0,pos,2,avoid,meat4_crop.jpg,14.0,False,left,1.0,133.0,1,2818.42,1.0,14.0,DON'T EAT                                    EAT,2816.62,2806.56,2612.87
135,2.0,pos,2,avoid,meat11_crop.jpg,14.0,False,left,1.0,134.0,3,2820.44,1.0,14.0,DON'T EAT                                    EAT,2818.64,2806.56,2612.87
136,2.0,pos,2,avoid,meat21_crop.jpg,14.0,False,left,1.0,135.0,3,2822.46,1.0,14.0,DON'T EAT                                    EAT,2820.66,2806.56,2612.87
137,2.0,pos,2,approach,cake34_crop.jpg,14.0,True,left,1.0,136.0,1,2824.47,1.0,14.0,DON'T EAT                                    EAT,2822.67,2806.56,2612.87
138,2.0,pos,2,avoid,meat34_crop.jpg,14.0,False,left,1.0,137.0,1,2826.49,1.0,14.0,DON'T EAT                                    EAT,2824.69,2806.56,2612.87
139,2.0,pos,2,avoid,meat3_crop.jpg,14.0,False,left,1.0,138.0,3,2828.51,1.0,14.0,DON'T EAT                                    EAT,2826.71,2806.56,2612.87
140,2.0,pos,2,avoid,meat2_crop.jpg,14.0,False,left,1.0,139.0,3,2830.52,1.0,14.0,DON'T EAT                                    EAT,2828.72,2806.56,2612.87
141,2.0,pos,1,approach,cake35_crop.jpg,15.0,False,left,1.0,140.0,1,2848.47,1.0,15.0,DON'T EAT                                    EAT,2846.67,2842.66,2612.87
142,2.0,neg,1,avoid,fungus4_crop.jpg,15.0,True,left,1.0,141.0,3,2850.49,1.0,15.0,DON'T EAT                                    EAT,2848.69,2842.66,2612.87
143,2.0,pos,1,approach,cake10_crop.jpg,15.0,False,left,1.0,142.0,1,2852.49,1.0,15.0,DON'T EAT                                    EAT,2850.7,2842.66,2612.87
144,2.0,pos,1,approach,cake29_crop.jpg,15.0,False,left,1.0,143.0,1,2854.51,1.0,15.0,DON'T EAT                                    EAT,2852.72,2842.66,2612.87
145,2.0,pos,1,approach,cake1_crop.jpg,15.0,False,left,1.0,144.0,1,2856.53,1.0,15.0,DON'T EAT                                    EAT,2854.74,2842.66,2612.87
146,2.0,pos,1,approach,cake17_crop.jpg,15.0,False,left,1.0,145.0,1,2858.54,1.0,15.0,DON'T EAT                                    EAT,2856.75,2842.66,2612.87
147,2.0,pos,1,approach,cake23_crop.jpg,15.0,False,left,1.0,146.0,1,2860.56,1.0,15.0,DON'T EAT                                    EAT,2858.77,2842.66,2612.87
148,2.0,pos,1,avoid,meat10_crop.jpg,15.0,True,left,1.0,147.0,3,2862.58,1.0,15.0,DON'T EAT                                    EAT,2860.79,2842.66,2612.87
149,2.0,pos,1,approach,cake2_crop.jpg,15.0,False,left,1.0,148.0,1,2864.59,1.0,15.0,DON'T EAT                                    EAT,2862.8,2842.66,2612.87
150,2.0,pos,1,approach,cake11_crop.jpg,15.0,False,left,1.0,149.0,1,2866.61,1.0,15.0,DON'T EAT                                    EAT,2864.82,2842.66,2612.87
151,2.0,pos,1,avoid,meat9_crop.jpg,16.0,False,left,1.0,150.0,1,2883.78,1.0,16.0,DON'T EAT                                    EAT,2881.99,2877.97,2612.87
152,2.0,pos,1,avoid,meat35_crop.jpg,16.0,False,left,1.0,151.0,3,2885.79,1.0,16.0,DON'T EAT                                    EAT,2884.0,2877.97,2612.87
153,2.0,pos,1,avoid,meat16_crop.jpg,16.0,False,left,1.0,152.0,3,2887.81,1.0,16.0,DON'T EAT                                    EAT,2886.02,2877.97,2612.87
154,2.0,pos,1,avoid,meat30_crop.jpg,16.0,False,left,1.0,153.0,3,2889.83,1.0,16.0,DON'T EAT                                    EAT,2888.04,2877.97,2612.87
155,2.0,pos,1,approach,cake22_crop.jpg,16.0,True,left,1.0,154.0,1,2891.84,1.0,16.0,DON'T EAT                                    EAT,2890.05,2877.97,2612.87
156,2.0,pos,1,avoid,meat22_crop.jpg,16.0,False,left,1.0,155.0,1,2893.86,1.0,16.0,DON'T EAT                                    EAT,2892.07,2877.97,2612.87
157,2.0,pos,1,avoid,meat12_crop.jpg,16.0,False,left,1.0,156.0,3,2895.88,1.0,16.0,DON'T EAT                                    EAT,2894.08,2877.97,2612.87
158,2.0,pos,1,avoid,meat15_crop.jpg,16.0,False,left,1.0,157.0,3,2897.89,1.0,16.0,DON'T EAT                                    EAT,2896.1,2877.97,2612.87
159,2.0,neg,1,approach,insect4_crop.jpg,16.0,True,left,1.0,158.0,1,2899.91,1.0,16.0,DON'T EAT                                    EAT,2898.12,2877.97,2612.87
160,2.0,pos,1,avoid,meat8_crop.jpg,16.0,False,left,1.0,159.0,3,2901.93,1.0,16.0,DON'T EAT                                    EAT,2900.13,2877.97,2612.87
161,3.0,pos,2,approach,cake11_crop.jpg,17.0,True,right,1.0,160.0,1,3007.76,1.0,17.0,DON'T EAT                                    EAT,3005.96,3001.95,2991.79
162,3.0,pos,2,avoid,meat15_crop.jpg,17.0,False,right,1.0,161.0,3,3009.77,1.0,17.0,DON'T EAT                                    EAT,3007.98,3001.95,2991.79
163,3.0,pos,2,avoid,meat33_crop.jpg,17.0,False,right,1.0,162.0,3,3011.79,1.0,17.0,DON'T EAT                                    EAT,3009.99,3001.95,2991.79
164,3.0,pos,2,avoid,meat21_crop.jpg,17.0,False,right,1.0,163.0,3,3013.81,1.0,17.0,DON'T EAT                                    EAT,3012.01,3001.95,2991.79
165,3.0,pos,2,avoid,meat30_crop.jpg,17.0,False,right,1.0,164.0,3,3015.82,1.0,17.0,DON'T EAT                                    EAT,3014.03,3001.95,2991.79
166,3.0,pos,2,avoid,meat24_crop.jpg,17.0,False,right,1.0,165.0,3,3017.84,1.0,17.0,DON'T EAT                                    EAT,3016.04,3001.95,2991.79
167,3.0,pos,2,avoid,meat9_crop.jpg,17.0,False,right,1.0,166.0,3,3019.86,1.0,17.0,DON'T EAT                                    EAT,3018.06,3001.95,2991.79
168,3.0,neg,2,approach,insect35_crop.jpg,17.0,True,right,1.0,167.0,1,3021.87,1.0,17.0,DON'T EAT                                    EAT,3020.08,3001.95,2991.79
169,3.0,pos,2,avoid,meat31_crop.jpg,17.0,False,right,1.0,168.0,3,3023.89,1.0,17.0,DON'T EAT                                    EAT,3022.09,3001.95,2991.79
170,3.0,pos,2,avoid,meat32_crop.jpg,17.0,False,right,1.0,169.0,3,3025.91,1.0,17.0,DON'T EAT                                    EAT,3024.11,3001.95,2991.79
171,3.0,pos,3,approach,cake13_crop.jpg,18.0,False,right,1.0,170.0,1,3043.07,1.0,18.0,DON'T EAT                                    EAT,3041.28,3037.26,2991.79
172,3.0,pos,3,avoid,meat28_crop.jpg,18.0,True,right,1.0,171.0,3,3045.09,1.0,18.0,DON'T EAT                                    EAT,3043.29,3037.26,2991.79
173,3.0,pos,3,approach,cake23_crop.jpg,18.0,False,right,1.0,172.0,1,3047.11,1.0,18.0,DON'T EAT                                    EAT,3045.31,3037.26,2991.79
174,3.0,pos,3,approach,cake12_crop.jpg,18.0,False,right,1.0,173.0,1,3049.12,1.0,18.0,DON'T EAT                                    EAT,3047.33,3037.26,2991.79
175,3.0,pos,3,approach,cake3_crop.jpg,18.0,False,right,1.0,174.0,1,3051.14,1.0,18.0,DON'T EAT                                    EAT,3049.34,3037.26,2991.79
176,3.0,pos,3,approach,cake16_crop.jpg,18.0,False,right,1.0,175.0,1,3053.16,1.0,18.0,DON'T EAT                                    EAT,3051.36,3037.26,2991.79
177,3.0,pos,3,approach,cake6_crop.jpg,18.0,False,right,1.0,176.0,1,3055.17,1.0,18.0,DON'T EAT                                    EAT,3053.38,3037.26,2991.79
178,3.0,neg,3,avoid,fungus18_crop.jpg,18.0,True,right,1.0,177.0,3,3057.19,1.0,18.0,DON'T EAT                                    EAT,3055.39,3037.26,2991.79
179,3.0,pos,3,approach,cake17_crop.jpg,18.0,False,right,1.0,178.0,1,3059.21,1.0,18.0,DON'T EAT                                    EAT,3057.41,3037.26,2991.79
180,3.0,pos,3,approach,cake37_crop.jpg,18.0,False,right,1.0,179.0,1,3061.22,1.0,18.0,DON'T EAT                                    EAT,3059.42,3037.26,2991.79
181,3.0,pos,0,avoid,meat19_crop.jpg,19.0,False,left,1.0,180.0,3,3078.12,1.0,19.0,DON'T EAT                                    EAT,3076.32,3072.31,2991.79
182,3.0,pos,0,avoid,meat32_crop.jpg,19.0,False,left,1.0,181.0,3,3080.14,1.0,19.0,DON'T EAT                                    EAT,3078.34,3072.31,2991.79
183,3.0,pos,0,approach,cake30_crop.jpg,19.0,True,left,1.0,182.0,1,3082.16,1.0,19.0,DON'T EAT                                    EAT,3080.36,3072.31,2991.79
184,3.0,pos,0,avoid,meat38_crop.jpg,19.0,False,left,1.0,183.0,3,3084.17,1.0,19.0,DON'T EAT                                    EAT,3082.37,3072.31,2991.79
185,3.0,pos,0,avoid,meat40_crop.jpg,19.0,False,left,1.0,184.0,3,3086.19,1.0,19.0,DON'T EAT                                    EAT,3084.39,3072.31,2991.79
186,3.0,neg,0,approach,insect19_crop.jpg,19.0,True,left,1.0,185.0,1,3088.21,1.0,19.0,DON'T EAT                                    EAT,3086.41,3072.31,2991.79
187,3.0,pos,0,avoid,meat5_crop.jpg,19.0,False,left,1.0,186.0,3,3090.22,1.0,19.0,DON'T EAT                                    EAT,3088.42,3072.31,2991.79
188,3.0,pos,0,avoid,meat7_crop.jpg,19.0,False,left,1.0,187.0,3,3092.24,1.0,19.0,DON'T EAT                                    EAT,3090.44,3072.31,2991.79
189,3.0,pos,0,avoid,meat29_crop.jpg,19.0,False,left,1.0,188.0,3,3094.26,1.0,19.0,DON'T EAT                                    EAT,3092.46,3072.31,2991.79
190,3.0,pos,0,avoid,meat28_crop.jpg,19.0,False,left,1.0,189.0,3,3096.27,1.0,19.0,DON'T EAT                                    EAT,3094.47,3072.31,2991.79
191,3.0,pos,3,approach,cake37_crop.jpg,20.0,False,left,1.0,190.0,1,3114.47,1.0,20.0,DON'T EAT                                    EAT,3112.67,3108.66,2991.79
192,3.0,pos,3,approach,cake39_crop.jpg,20.0,False,left,1.0,191.0,1,3116.49,1.0,20.0,DON'T EAT                                    EAT,3114.69,3108.66,2991.79
193,3.0,neg,3,avoid,fungus39_crop.jpg,20.0,True,left,1.0,192.0,3,3118.5,1.0,20.0,DON'T EAT                                    EAT,3116.7,3108.66,2991.79
194,3.0,pos,3,approach,cake7_crop.jpg,20.0,False,left,1.0,193.0,1,3120.52,1.0,20.0,DON'T EAT                                    EAT,3118.72,3108.66,2991.79
195,3.0,pos,3,approach,cake15_crop.jpg,20.0,False,left,1.0,194.0,1,3122.53,1.0,20.0,DON'T EAT                                    EAT,3120.74,3108.66,2991.79
196,3.0,pos,3,approach,cake27_crop.jpg,20.0,False,left,1.0,195.0,1,3124.54,1.0,20.0,DON'T EAT                                    EAT,3122.75,3108.66,2991.79
197,3.0,pos,3,avoid,meat23_crop.jpg,20.0,True,left,1.0,196.0,3,3126.56,1.0,20.0,DON'T EAT                                    EAT,3124.77,3108.66,2991.79
198,3.0,pos,3,approach,cake4_crop.jpg,20.0,False,left,1.0,197.0,1,3128.58,1.0,20.0,DON'T EAT                                    EAT,3126.79,3108.66,2991.79
199,3.0,pos,3,approach,cake14_crop.jpg,20.0,False,left,1.0,198.0,1,3130.59,1.0,20.0,DON'T EAT                                    EAT,3128.8,3108.66,2991.79
200,3.0,pos,3,approach,cake12_crop.jpg,20.0,False,left,1.0,199.0,1,3132.61,1.0,20.0,DON'T EAT                                    EAT,3130.82,3108.66,2991.79
201,3.0,neg,1,approach,insect21_crop.jpg,21.0,False,right,1.0,200.0,1,3150.36,1.0,21.0,DON'T EAT                                    EAT,3148.57,3144.55,2991.79
202,3.0,neg,1,approach,insect1_crop.jpg,21.0,False,right,1.0,201.0,1,3152.41,1.0,21.0,DON'T EAT                                    EAT,3150.62,3144.55,2991.79
203,3.0,neg,1,approach,insect26_crop.jpg,21.0,False,right,1.0,202.0,1,3154.43,1.0,21.0,DON'T EAT                                    EAT,3152.64,3144.55,2991.79
204,3.0,neg,1,approach,insect9_crop.jpg,21.0,False,right,1.0,203.0,1,3156.44,1.0,21.0,DON'T EAT                                    EAT,3154.65,3144.55,2991.79
205,3.0,neg,1,approach,insect8_crop.jpg,21.0,False,right,1.0,204.0,1,3158.46,1.0,21.0,DON'T EAT                                    EAT,3156.67,3144.55,2991.79
206,3.0,pos,1,avoid,meat14_crop.jpg,21.0,True,right,1.0,205.0,3,3160.48,1.0,21.0,DON'T EAT                                    EAT,3158.69,3144.55,2991.79
207,3.0,neg,1,approach,insect22_crop.jpg,21.0,False,right,1.0,206.0,1,3162.49,1.0,21.0,DON'T EAT                                    EAT,3160.7,3144.55,2991.79
208,3.0,neg,1,approach,insect36_crop.jpg,21.0,False,right,1.0,207.0,1,3164.51,1.0,21.0,DON'T EAT                                    EAT,3162.72,3144.55,2991.79
209,3.0,neg,1,avoid,fungus12_crop.jpg,21.0,True,right,1.0,208.0,3,3166.53,1.0,21.0,DON'T EAT                                    EAT,3164.73,3144.55,2991.79
210,3.0,neg,1,approach,insect10_crop.jpg,21.0,False,right,1.0,209.0,1,3168.54,1.0,21.0,DON'T EAT                                    EAT,3166.75,3144.55,2991.79
211,3.0,pos,1,approach,cake33_crop.jpg,22.0,True,right,1.0,210.0,1,3188.06,1.0,22.0,DON'T EAT                                    EAT,3186.27,3182.25,2991.79
212,3.0,pos,1,avoid,meat19_crop.jpg,22.0,False,right,1.0,211.0,3,3190.08,1.0,22.0,DON'T EAT                                    EAT,3188.28,3182.25,2991.79
213,3.0,pos,1,avoid,meat25_crop.jpg,22.0,False,right,1.0,212.0,3,3192.09,1.0,22.0,DON'T EAT                                    EAT,3190.3,3182.25,2991.79
214,3.0,pos,1,avoid,meat3_crop.jpg,22.0,False,right,1.0,213.0,3,3194.11,1.0,22.0,DON'T EAT                                    EAT,3192.32,3182.25,2991.79
215,3.0,pos,1,avoid,meat23_crop.jpg,22.0,False,right,1.0,214.0,3,3196.13,1.0,22.0,DON'T EAT                                    EAT,3194.33,3182.25,2991.79
216,3.0,pos,1,avoid,meat11_crop.jpg,22.0,False,right,1.0,215.0,3,3198.14,1.0,22.0,DON'T EAT                                    EAT,3196.35,3182.25,2991.79
217,3.0,pos,1,avoid,meat17_crop.jpg,22.0,False,right,1.0,216.0,3,3200.16,1.0,22.0,DON'T EAT                                    EAT,3198.37,3182.25,2991.79
218,3.0,pos,1,avoid,meat26_crop.jpg,22.0,False,right,1.0,217.0,3,3202.18,1.0,22.0,DON'T EAT                                    EAT,3200.38,3182.25,2991.79
219,3.0,pos,1,avoid,meat34_crop.jpg,22.0,False,right,1.0,218.0,3,3204.19,1.0,22.0,DON'T EAT                                    EAT,3202.4,3182.25,2991.79
220,3.0,neg,1,approach,insect7_crop.jpg,22.0,True,right,1.0,219.0,1,3206.21,1.0,22.0,DON'T EAT                                    EAT,3204.42,3182.25,2991.79
221,3.0,neg,1,approach,insect2_crop.jpg,23.0,False,left,1.0,220.0,1,3225.63,1.0,23.0,DON'T EAT                                    EAT,3223.83,3219.81,2991.79
222,3.0,neg,1,approach,insect33_crop.jpg,23.0,False,left,1.0,221.0,1,3227.64,1.0,23.0,DON'T EAT                                    EAT,3225.85,3219.81,2991.79
223,3.0,neg,1,avoid,fungus34_crop.jpg,23.0,True,left,1.0,222.0,3,3229.66,1.0,23.0,DON'T EAT                                    EAT,3227.86,3219.81,2991.79
224,3.0,neg,1,approach,insect31_crop.jpg,23.0,False,left,1.0,223.0,1,3231.67,1.0,23.0,DON'T EAT                                    EAT,3229.88,3219.81,2991.79
225,3.0,neg,1,approach,insect28_crop.jpg,23.0,False,left,1.0,224.0,1,3233.69,1.0,23.0,DON'T EAT                                    EAT,3231.9,3219.81,2991.79
226,3.0,neg,1,approach,insect14_crop.jpg,23.0,False,left,1.0,225.0,1,3235.71,1.0,23.0,DON'T EAT                                    EAT,3233.91,3219.81,2991.79
227,3.0,neg,1,approach,insect10_crop.jpg,23.0,False,left,1.0,226.0,1,3237.72,1.0,23.0,DON'T EAT                                    EAT,3235.93,3219.81,2991.79
228,3.0,neg,1,approach,insect11_crop.jpg,23.0,False,left,1.0,227.0,1,3239.74,1.0,23.0,DON'T EAT                                    EAT,3237.95,3219.81,2991.79
229,3.0,neg,1,approach,insect35_crop.jpg,23.0,False,left,1.0,228.0,1,3241.76,1.0,23.0,DON'T EAT                                    EAT,3239.96,3219.81,2991.79
230,3.0,pos,1,avoid,meat37_crop.jpg,23.0,True,left,1.0,229.0,3,3243.77,1.0,23.0,DON'T EAT                                    EAT,3241.98,3219.81,2991.79
231,3.0,pos,2,approach,cake31_crop.jpg,24.0,False,right,1.0,230.0,1,3260.74,1.0,24.0,DON'T EAT                                    EAT,3258.95,3254.93,2991.79
232,3.0,pos,2,approach,cake10_crop.jpg,24.0,False,right,1.0,231.0,1,3262.76,1.0,24.0,DON'T EAT                                    EAT,3260.96,3254.93,2991.79
233,3.0,pos,2,approach,cake27_crop.jpg,24.0,False,right,1.0,232.0,1,3264.77,1.0,24.0,DON'T EAT                                    EAT,3262.98,3254.93,2991.79
234,3.0,pos,2,approach,cake18_crop.jpg,24.0,False,right,1.0,233.0,1,3266.79,1.0,24.0,DON'T EAT                                    EAT,3265.0,3254.93,2991.79
235,3.0,neg,2,avoid,fungus37_crop.jpg,24.0,True,right,1.0,234.0,3,3268.81,1.0,24.0,DON'T EAT                                    EAT,3267.01,3254.93,2991.79
236,3.0,pos,2,approach,cake36_crop.jpg,24.0,False,right,1.0,235.0,1,3270.82,1.0,24.0,DON'T EAT                                    EAT,3269.03,3254.93,2991.79
237,3.0,pos,2,approach,cake22_crop.jpg,24.0,False,right,1.0,236.0,1,3272.84,1.0,24.0,DON'T EAT                                    EAT,3271.04,3254.93,2991.79
238,3.0,pos,2,approach,cake20_crop.jpg,24.0,False,right,1.0,237.0,1,3274.86,1.0,24.0,DON'T EAT                                    EAT,3273.06,3254.93,2991.79
239,3.0,pos,2,approach,cake1_crop.jpg,24.0,False,right,1.0,238.0,1,3276.87,1.0,24.0,DON'T EAT                                    EAT,3275.08,3254.93,2991.79
240,3.0,pos,2,avoid,meat16_crop.jpg,24.0,True,right,1.0,239.0,1,3278.89,1.0,24.0,DON'T EAT                                    EAT,3277.09,3254.93,2991.79
241,4.0,neg,0,avoid,fungus3_crop.jpg,25.0,True,right,1.0,240.0,1,3365.65,1.0,25.0,DON'T EAT                                    EAT,3363.86,3359.84,3348.81
242,4.0,pos,0,approach,cake19_crop.jpg,25.0,False,right,1.0,241.0,1,3367.67,1.0,25.0,DON'T EAT                                    EAT,3365.87,3359.84,3348.81
243,4.0,pos,0,approach,cake35_crop.jpg,25.0,False,right,1.0,242.0,1,3369.69,1.0,25.0,DON'T EAT                                    EAT,3367.89,3359.84,3348.81
244,4.0,pos,0,avoid,meat8_crop.jpg,25.0,True,right,1.0,243.0,3,3371.7,1.0,25.0,DON'T EAT                                    EAT,3369.91,3359.84,3348.81
245,4.0,pos,0,approach,cake2_crop.jpg,25.0,False,right,1.0,244.0,1,3373.72,1.0,25.0,DON'T EAT                                    EAT,3371.92,3359.84,3348.81
246,4.0,pos,0,approach,cake4_crop.jpg,25.0,False,right,1.0,245.0,1,3375.74,1.0,25.0,DON'T EAT                                    EAT,3373.94,3359.84,3348.81
247,4.0,pos,0,approach,cake5_crop.jpg,25.0,False,right,1.0,246.0,1,3377.75,1.0,25.0,DON'T EAT                                    EAT,3375.95,3359.84,3348.81
248,4.0,pos,0,approach,cake38_crop.jpg,25.0,False,right,1.0,247.0,1,3379.77,1.0,25.0,DON'T EAT                                    EAT,3377.97,3359.84,3348.81
249,4.0,pos,0,approach,cake34_crop.jpg,25.0,False,right,1.0,248.0,1,3381.79,1.0,25.0,DON'T EAT                                    EAT,3379.99,3359.84,3348.81
250,4.0,pos,0,approach,cake28_crop.jpg,25.0,False,right,1.0,249.0,1,3383.8,1.0,25.0,DON'T EAT                                    EAT,3382.0,3359.84,3348.81
251,4.0,pos,2,approach,cake24_crop.jpg,26.0,False,left,1.0,250.0,1,3402.99,1.0,26.0,DON'T EAT                                    EAT,3401.19,3397.17,3348.81
252,4.0,neg,2,avoid,fungus6_crop.jpg,26.0,True,left,1.0,251.0,3,3404.99,1.0,26.0,DON'T EAT                                    EAT,3403.2,3397.17,3348.81
253,4.0,pos,2,approach,cake26_crop.jpg,26.0,False,left,1.0,252.0,1,3407.01,1.0,26.0,DON'T EAT                                    EAT,3405.22,3397.17,3348.81
254,4.0,pos,2,approach,cake40_crop.jpg,26.0,False,left,1.0,253.0,1,3409.03,1.0,26.0,DON'T EAT                                    EAT,3407.24,3397.17,3348.81
255,4.0,pos,2,approach,cake16_crop.jpg,26.0,False,left,1.0,254.0,1,3411.04,1.0,26.0,DON'T EAT                                    EAT,3409.25,3397.17,3348.81
256,4.0,pos,2,approach,cake9_crop.jpg,26.0,False,left,1.0,255.0,1,3413.06,1.0,26.0,DON'T EAT                                    EAT,3411.27,3397.17,3348.81
257,4.0,pos,2,approach,cake31_crop.jpg,26.0,False,left,1.0,256.0,1,3415.08,1.0,26.0,DON'T EAT                                    EAT,3413.29,3397.17,3348.81
258,4.0,pos,2,avoid,meat17_crop.jpg,26.0,True,left,1.0,257.0,3,3417.09,1.0,26.0,DON'T EAT                                    EAT,3415.3,3397.17,3348.81
259,4.0,pos,2,approach,cake32_crop.jpg,26.0,False,left,1.0,258.0,3,3419.11,1.0,26.0,DON'T EAT                                    EAT,3417.32,3397.17,3348.81
260,4.0,pos,2,approach,cake20_crop.jpg,26.0,False,left,1.0,259.0,1,3421.13,1.0,26.0,DON'T EAT                                    EAT,3419.34,3397.17,3348.81
261,4.0,pos,3,avoid,meat6_crop.jpg,27.0,True,right,1.0,260.0,3,3440.71,1.0,27.0,DON'T EAT                                    EAT,3438.92,3434.9,3348.81
262,4.0,neg,3,approach,insect37_crop.jpg,27.0,False,right,1.0,261.0,1,3442.73,1.0,27.0,DON'T EAT                                    EAT,3440.93,3434.9,3348.81
263,4.0,neg,3,approach,insect24_crop.jpg,27.0,False,right,1.0,262.0,1,3444.74,1.0,27.0,DON'T EAT                                    EAT,3442.95,3434.9,3348.81
264,4.0,neg,3,approach,insect30_crop.jpg,27.0,False,right,1.0,263.0,1,3446.76,1.0,27.0,DON'T EAT                                    EAT,3444.97,3434.9,3348.81
265,4.0,neg,3,approach,insect5_crop.jpg,27.0,False,right,1.0,264.0,1,3448.78,1.0,27.0,DON'T EAT                                    EAT,3446.98,3434.9,3348.81
266,4.0,neg,3,approach,insect15_crop.jpg,27.0,False,right,1.0,265.0,1,3450.79,1.0,27.0,DON'T EAT                                    EAT,3449.0,3434.9,3348.81
267,4.0,neg,3,avoid,fungus33_crop.jpg,27.0,True,right,1.0,266.0,3,3452.81,1.0,27.0,DON'T EAT                                    EAT,3451.02,3434.9,3348.81
268,4.0,neg,3,approach,insect6_crop.jpg,27.0,False,right,1.0,267.0,1,3454.83,1.0,27.0,DON'T EAT                                    EAT,3453.03,3434.9,3348.81
269,4.0,neg,3,approach,insect12_crop.jpg,27.0,False,right,1.0,268.0,1,3456.84,1.0,27.0,DON'T EAT                                    EAT,3455.05,3434.9,3348.81
270,4.0,neg,3,approach,insect18_crop.jpg,27.0,False,right,1.0,269.0,1,3458.86,1.0,27.0,DON'T EAT                                    EAT,3457.07,3434.9,3348.81
271,4.0,neg,3,approach,insect1_crop.jpg,28.0,False,left,1.0,270.0,1,3475.99,1.0,28.0,DON'T EAT                                    EAT,3474.2,3470.18,3348.81
272,4.0,neg,3,approach,insect40_crop.jpg,28.0,False,left,1.0,271.0,1,3478.01,1.0,28.0,DON'T EAT                                    EAT,3476.22,3470.18,3348.81
273,4.0,neg,3,approach,insect16_crop.jpg,28.0,False,left,1.0,272.0,1,3480.02,1.0,28.0,DON'T EAT                                    EAT,3478.23,3470.18,3348.81
274,4.0,neg,3,approach,insect21_crop.jpg,28.0,False,left,1.0,273.0,1,3482.04,1.0,28.0,DON'T EAT                                    EAT,3480.25,3470.18,3348.81
275,4.0,neg,3,approach,insect7_crop.jpg,28.0,False,left,1.0,274.0,1,3484.06,1.0,28.0,DON'T EAT                                    EAT,3482.26,3470.18,3348.81
276,4.0,neg,3,approach,insect22_crop.jpg,28.0,False,left,1.0,275.0,1,3486.07,1.0,28.0,DON'T EAT                                    EAT,3484.28,3470.18,3348.81
277,4.0,neg,3,approach,insect3_crop.jpg,28.0,False,left,1.0,276.0,1,3488.09,1.0,28.0,DON'T EAT                                    EAT,3486.3,3470.18,3348.81
278,4.0,neg,3,approach,insect17_crop.jpg,28.0,False,left,1.0,277.0,1,3490.11,1.0,28.0,DON'T EAT                                    EAT,3488.31,3470.18,3348.81
279,4.0,neg,3,avoid,fungus3_crop.jpg,28.0,True,left,1.0,278.0,3,3492.12,1.0,28.0,DON'T EAT                                    EAT,3490.33,3470.18,3348.81
280,4.0,pos,3,avoid,meat25_crop.jpg,28.0,True,left,1.0,279.0,3,3494.14,1.0,28.0,DON'T EAT                                    EAT,3492.35,3470.18,3348.81
281,4.0,pos,0,approach,cake13_crop.jpg,29.0,False,left,1.0,280.0,1,3510.99,1.0,29.0,DON'T EAT                                    EAT,3509.2,3505.18,3348.81
282,4.0,pos,0,avoid,meat6_crop.jpg,29.0,True,left,1.0,281.0,3,3513.01,1.0,29.0,DON'T EAT                                    EAT,3511.21,3505.18,3348.81
283,4.0,pos,0,approach,cake6_crop.jpg,29.0,False,left,1.0,282.0,1,3515.02,1.0,29.0,DON'T EAT                                    EAT,3513.23,3505.18,3348.81
284,4.0,pos,0,approach,cake28_crop.jpg,29.0,False,left,1.0,283.0,1,3517.04,1.0,29.0,DON'T EAT                                    EAT,3515.25,3505.18,3348.81
285,4.0,pos,0,approach,cake5_crop.jpg,29.0,False,left,1.0,284.0,1,3519.06,1.0,29.0,DON'T EAT                                    EAT,3517.26,3505.18,3348.81
286,4.0,neg,0,avoid,fungus9_crop.jpg,29.0,True,left,1.0,285.0,3,3521.07,1.0,29.0,DON'T EAT                                    EAT,3519.28,3505.18,3348.81
287,4.0,pos,0,approach,cake36_crop.jpg,29.0,False,left,1.0,286.0,1,3523.09,1.0,29.0,DON'T EAT                                    EAT,3521.3,3505.18,3348.81
288,4.0,pos,0,approach,cake8_crop.jpg,29.0,False,left,1.0,287.0,1,3525.11,1.0,29.0,DON'T EAT                                    EAT,3523.31,3505.18,3348.81
289,4.0,pos,0,approach,cake25_crop.jpg,29.0,False,left,1.0,288.0,1,3527.12,1.0,29.0,DON'T EAT                                    EAT,3525.33,3505.18,3348.81
290,4.0,pos,0,approach,cake3_crop.jpg,29.0,False,left,1.0,289.0,1,3529.14,1.0,29.0,DON'T EAT                                    EAT,3527.35,3505.18,3348.81
291,4.0,pos,0,approach,cake33_crop.jpg,30.0,True,left,1.0,290.0,1,3548.79,1.0,30.0,DON'T EAT                                    EAT,3546.99,3542.98,3348.81
292,4.0,neg,0,avoid,fungus36_crop.jpg,30.0,False,left,1.0,291.0,3,3550.81,1.0,30.0,DON'T EAT                                    EAT,3549.01,3542.98,3348.81
293,4.0,neg,0,avoid,fungus11_crop.jpg,30.0,False,left,1.0,292.0,3,3552.82,1.0,30.0,DON'T EAT                                    EAT,3551.03,3542.98,3348.81
294,4.0,neg,0,avoid,fungus33_crop.jpg,30.0,False,left,1.0,293.0,3,3554.84,1.0,30.0,DON'T EAT                                    EAT,3553.04,3542.98,3348.81
295,4.0,neg,0,avoid,fungus2_crop.jpg,30.0,False,left,1.0,294.0,3,3556.86,1.0,30.0,DON'T EAT                                    EAT,3555.06,3542.98,3348.81
296,4.0,neg,0,avoid,fungus29_crop.jpg,30.0,False,left,1.0,295.0,3,3558.87,1.0,30.0,DON'T EAT                                    EAT,3557.08,3542.98,3348.81
297,4.0,neg,0,avoid,fungus8_crop.jpg,30.0,False,left,1.0,296.0,3,3560.89,1.0,30.0,DON'T EAT                                    EAT,3559.09,3542.98,3348.81
298,4.0,neg,0,approach,insect25_crop.jpg,30.0,True,left,1.0,297.0,1,3562.91,1.0,30.0,DON'T EAT                                    EAT,3561.11,3542.98,3348.81
299,4.0,neg,0,avoid,fungus16_crop.jpg,30.0,False,left,1.0,298.0,3,3564.92,1.0,30.0,DON'T EAT                                    EAT,3563.13,3542.98,3348.81
300,4.0,neg,0,avoid,fungus14_crop.jpg,30.0,False,left,1.0,299.0,3,3566.94,1.0,30.0,DON'T EAT                                    EAT,3565.14,3542.98,3348.81
301,4.0,neg,3,avoid,fungus38_crop.jpg,31.0,False,right,1.0,300.0,3,3584.22,1.0,31.0,DON'T EAT                                    EAT,3582.43,3578.41,3348.81
302,4.0,neg,3,avoid,fungus1_crop.jpg,31.0,False,right,1.0,301.0,3,3586.24,1.0,31.0,DON'T EAT                                    EAT,3584.44,3578.41,3348.81
303,4.0,neg,3,avoid,fungus32_crop.jpg,31.0,False,right,1.0,302.0,3,3588.26,1.0,31.0,DON'T EAT                                    EAT,3586.46,3578.41,3348.81
304,4.0,neg,3,avoid,fungus15_crop.jpg,31.0,False,right,1.0,303.0,3,3590.27,1.0,31.0,DON'T EAT                                    EAT,3588.48,3578.41,3348.81
305,4.0,pos,3,approach,cake15_crop.jpg,31.0,True,right,1.0,304.0,1,3592.29,1.0,31.0,DON'T EAT                                    EAT,3590.49,3578.41,3348.81
306,4.0,neg,3,avoid,fungus27_crop.jpg,31.0,False,right,1.0,305.0,3,3594.31,1.0,31.0,DON'T EAT                                    EAT,3592.51,3578.41,3348.81
307,4.0,neg,3,avoid,fungus21_crop.jpg,31.0,False,right,1.0,306.0,3,3596.32,1.0,31.0,DON'T EAT                                    EAT,3594.52,3578.41,3348.81
308,4.0,neg,3,avoid,fungus39_crop.jpg,31.0,False,right,1.0,307.0,3,3598.34,1.0,31.0,DON'T EAT                                    EAT,3596.54,3578.41,3348.81
309,4.0,neg,3,approach,insect14_crop.jpg,31.0,True,right,1.0,308.0,1,3600.36,1.0,31.0,DON'T EAT                                    EAT,3598.56,3578.41,3348.81
310,4.0,neg,3,avoid,fungus25_crop.jpg,31.0,False,right,1.0,309.0,3,3602.37,1.0,31.0,DON'T EAT                                    EAT,3600.57,3578.41,3348.81
311,4.0,neg,0,avoid,fungus38_crop.jpg,32.0,True,left,1.0,310.0,3,3620.3,1.0,32.0,DON'T EAT                                    EAT,3618.51,3614.49,3348.81
312,4.0,neg,0,approach,insect6_crop.jpg,32.0,False,left,1.0,311.0,1,3622.32,1.0,32.0,DON'T EAT                                    EAT,3620.52,3614.49,3348.81
313,4.0,neg,0,approach,insect12_crop.jpg,32.0,False,left,1.0,312.0,1,3624.34,1.0,32.0,DON'T EAT                                    EAT,3622.54,3614.49,3348.81
314,4.0,neg,0,approach,insect20_crop.jpg,32.0,False,left,1.0,313.0,1,3626.35,1.0,32.0,DON'T EAT                                    EAT,3624.56,3614.49,3348.81
315,4.0,pos,0,avoid,meat36_crop.jpg,32.0,True,left,1.0,314.0,3,3628.37,1.0,32.0,DON'T EAT                                    EAT,3626.57,3614.49,3348.81
316,4.0,neg,0,approach,insect38_crop.jpg,32.0,False,left,1.0,315.0,1,3630.39,1.0,32.0,DON'T EAT                                    EAT,3628.59,3614.49,3348.81
317,4.0,neg,0,approach,insect24_crop.jpg,32.0,False,left,1.0,316.0,1,3632.4,1.0,32.0,DON'T EAT                                    EAT,3630.61,3614.49,3348.81
318,4.0,neg,0,approach,insect5_crop.jpg,32.0,False,left,1.0,317.0,1,3634.42,1.0,32.0,DON'T EAT                                    EAT,3632.62,3614.49,3348.81
319,4.0,neg,0,approach,insect37_crop.jpg,32.0,False,left,1.0,318.0,1,3636.44,1.0,32.0,DON'T EAT                                    EAT,3634.64,3614.49,3348.81
320,4.0,neg,0,approach,insect26_crop.jpg,32.0,False,left,1.0,319.0,1,3638.45,1.0,32.0,DON'T EAT                                    EAT,3636.66,3614.49,3348.81
