subject,trial_number,n_block,catch,hand,mot,val,stim_name,run_number,num_block,ran,order,response,time_of_response,subject_number,left_side_resp_label,trial_onset,blk_instr_onset,baseline_onset,response_hand,response_cleaned,response_lat,response_lat_cleaned,response_meaning,response_meaning_cleaned,condition_mot,condition_val,condition,correct,correct_cleaned,rt
sub-SD,1,0,FALSE,right,avoid,pos,meat27_crop.jpg,1,1,TRUE,0,3,2893.032,777,DON'T EAT                                    EAT,2891.113,2887.093,2875.9248,left,3,left,left,not_eat,not_eat,avoid,pos,avoid-pos,1,1,1919
sub-SD,2,0,FALSE,right,avoid,pos,meat22_crop.jpg,1,1,TRUE,1,3,2894.799,777,DON'T EAT                                    EAT,2893.1313,2887.093,2875.9248,left,3,left,left,not_eat,not_eat,avoid,pos,avoid-pos,1,1,1667.7000000001863
sub-SD,3,0,FALSE,right,avoid,pos,meat14_crop.jpg,1,1,TRUE,2,3,2896.3674,777,DON'T EAT                                    EAT,2895.15,2887.093,2875.9248,left,3,left,left,not_eat,not_eat,avoid,pos,avoid-pos,1,1,1217.3999999999069
sub-SD,4,0,FALSE,right,avoid,pos,meat35_crop.jpg,1,1,TRUE,3,3,2898.0374,777,DON'T EAT                                    EAT,2897.1711,2887.093,2875.9248,left,3,left,left,not_eat,not_eat,avoid,pos,avoid-pos,1,1,866.3000000002794
sub-SD,5,0,FALSE,right,avoid,pos,meat23_crop.jpg,1,1,TRUE,4,3,2900.033,777,DON'T EAT                                    EAT,2899.1885,2887.093,2875.9248,left,3,left,left,not_eat,not_eat,avoid,pos,avoid-pos,1,1,844.5
sub-SD,6,0,FALSE,right,avoid,pos,meat34_crop.jpg,1,1,TRUE,5,3,2902.8176,777,DON'T EAT                                    EAT,2901.2048,2887.093,2875.9248,left,3,left,left,not_eat,not_eat,avoid,pos,avoid-pos,1,1,1612.7999999998137
sub-SD,7,0,FALSE,right,avoid,pos,meat36_crop.jpg,1,1,TRUE,6,3,2904.4082,777,DON'T EAT                                    EAT,2903.2231,2887.093,2875.9248,left,3,left,left,not_eat,not_eat,avoid,pos,avoid-pos,1,1,1185.0999999996275
sub-SD,8,0,FALSE,right,avoid,pos,meat6_crop.jpg,1,1,TRUE,7,3,2906.4153,777,DON'T EAT                                    EAT,2905.2415,2887.093,2875.9248,left,3,left,left,not_eat,not_eat,avoid,pos,avoid-pos,1,1,1173.8000000002794
sub-SD,9,0,TRUE,right,approach,pos,cake35_crop.jpg,1,1,TRUE,8,1,2908.346,777,DON'T EAT                                    EAT,2907.2598,2887.093,2875.9248,left,1,right,right,eat,eat,avoid,pos,avoid-pos,1,1,1086.2000000001863
sub-SD,10,0,TRUE,right,approach,neg,insect28_crop.jpg,1,1,TRUE,9,1,2910.6816,777,DON'T EAT                                    EAT,2909.278,2887.093,2875.9248,left,1,right,right,eat,eat,avoid,pos,avoid-pos,1,1,1403.6000000000931
sub-SD,11,3,FALSE,left,approach,neg,insect26_crop.jpg,1,2,TRUE,10,1,2928.2727,777,DON'T EAT                                    EAT,2926.7593,2922.7393,2875.9248,left,1,right,right,eat,eat,approach,neg,approach-neg,1,1,1513.3999999999069
sub-SD,12,3,FALSE,left,approach,neg,insect4_crop.jpg,1,2,TRUE,11,1,2929.732,777,DON'T EAT                                    EAT,2928.7776,2922.7393,2875.9248,left,1,right,right,eat,eat,approach,neg,approach-neg,1,1,954.3999999999069
sub-SD,13,3,FALSE,left,approach,neg,insect18_crop.jpg,1,2,TRUE,12,1,2931.4983,777,DON'T EAT                                    EAT,2930.7961,2922.7393,2875.9248,left,1,right,right,eat,eat,approach,neg,approach-neg,1,1,702.2000000001863
sub-SD,14,3,FALSE,left,approach,neg,insect24_crop.jpg,1,2,TRUE,13,1,2933.5269,777,DON'T EAT                                    EAT,2932.8142,2922.7393,2875.9248,left,1,right,right,eat,eat,approach,neg,approach-neg,1,1,712.7000000001863
sub-SD,15,3,FALSE,left,approach,neg,insect34_crop.jpg,1,2,TRUE,14,1,2935.3923,777,DON'T EAT                                    EAT,2934.8328,2922.7393,2875.9248,left,1,right,right,eat,eat,approach,neg,approach-neg,1,1,559.4999999995343
sub-SD,16,3,FALSE,left,approach,neg,insect36_crop.jpg,1,2,TRUE,15,1,2937.5093,777,DON'T EAT                                    EAT,2936.851,2922.7393,2875.9248,left,1,right,right,eat,eat,approach,neg,approach-neg,1,1,658.3000000002794
sub-SD,17,3,TRUE,left,avoid,neg,fungus22_crop.jpg,1,2,TRUE,16,3,2939.747,777,DON'T EAT                                    EAT,2938.8694,2922.7393,2875.9248,left,3,left,left,not_eat,not_eat,approach,neg,approach-neg,1,1,877.6000000000931
sub-SD,18,3,FALSE,left,approach,neg,insect31_crop.jpg,1,2,TRUE,17,1,2941.7869,777,DON'T EAT                                    EAT,2940.8877,2922.7393,2875.9248,left,1,right,right,eat,eat,approach,neg,approach-neg,1,1,899.1999999997206
sub-SD,19,3,TRUE,left,avoid,pos,meat34_crop.jpg,1,2,TRUE,18,3,2944.1895,777,DON'T EAT                                    EAT,2942.906,2922.7393,2875.9248,left,3,left,left,not_eat,not_eat,approach,neg,approach-neg,1,1,1283.5
sub-SD,20,3,FALSE,left,approach,neg,insect3_crop.jpg,1,2,TRUE,19,1,2945.9229,777,DON'T EAT                                    EAT,2944.9243,2922.7393,2875.9248,left,1,right,right,eat,eat,approach,neg,approach-neg,1,1,998.5999999996275
sub-SD,21,1,TRUE,left,avoid,pos,meat2_crop.jpg,1,3,TRUE,20,3,2963.8037,777,DON'T EAT                                    EAT,2962.389,2958.369,2875.9248,left,3,left,left,not_eat,not_eat,approach,pos,approach-pos,1,1,1414.6999999997206
sub-SD,22,1,FALSE,left,approach,pos,cake7_crop.jpg,1,3,TRUE,21,1,2965.3726,777,DON'T EAT                                    EAT,2964.4072,2958.369,2875.9248,left,1,right,right,eat,eat,approach,pos,approach-pos,1,1,965.3999999999069
sub-SD,23,1,FALSE,left,approach,pos,cake29_crop.jpg,1,3,TRUE,22,1,2966.9954,777,DON'T EAT                                    EAT,2966.4255,2958.369,2875.9248,left,1,right,right,eat,eat,approach,pos,approach-pos,1,1,569.8999999999069
sub-SD,24,1,FALSE,left,approach,pos,cake34_crop.jpg,1,3,TRUE,23,1,2969.618,777,DON'T EAT                                    EAT,2968.444,2958.369,2875.9248,left,1,right,right,eat,eat,approach,pos,approach-pos,1,1,1174
sub-SD,25,1,FALSE,left,approach,pos,cake12_crop.jpg,1,3,TRUE,24,1,2971.6362,777,DON'T EAT                                    EAT,2970.4622,2958.369,2875.9248,left,1,right,right,eat,eat,approach,pos,approach-pos,1,1,1174
sub-SD,26,1,TRUE,left,avoid,neg,fungus2_crop.jpg,1,3,TRUE,25,3,2973.6877,777,DON'T EAT                                    EAT,2972.4807,2958.369,2875.9248,left,3,left,left,not_eat,not_eat,approach,pos,approach-pos,1,1,1206.9999999995343
sub-SD,27,1,FALSE,left,approach,pos,cake20_crop.jpg,1,3,TRUE,26,1,2975.2224,777,DON'T EAT                                    EAT,2974.499,2958.369,2875.9248,left,1,right,right,eat,eat,approach,pos,approach-pos,1,1,723.3999999999069
sub-SD,28,1,FALSE,left,approach,pos,cake9_crop.jpg,1,3,TRUE,27,1,2977.0876,777,DON'T EAT                                    EAT,2976.5173,2958.369,2875.9248,left,1,right,right,eat,eat,approach,pos,approach-pos,1,1,570.2999999998137
sub-SD,29,1,FALSE,left,approach,pos,cake37_crop.jpg,1,3,TRUE,28,1,2979.819,777,DON'T EAT                                    EAT,2978.5356,2958.369,2875.9248,left,1,right,right,eat,eat,approach,pos,approach-pos,1,1,1283.3999999999069
sub-SD,30,1,FALSE,left,approach,pos,cake21_crop.jpg,1,3,TRUE,29,1,2981.5852,777,DON'T EAT                                    EAT,2980.554,2958.369,2875.9248,left,1,right,right,eat,eat,approach,pos,approach-pos,1,1,1031.2000000001863
sub-SD,31,0,FALSE,left,approach,pos,cake39_crop.jpg,1,4,TRUE,30,1,2999.8518,777,DON'T EAT                                    EAT,2998.5356,2994.5156,2875.9248,left,1,right,right,eat,eat,approach,pos,approach-pos,1,1,1316.1999999997206
sub-SD,32,0,TRUE,left,avoid,neg,fungus7_crop.jpg,1,4,TRUE,31,3,3001.5405,777,DON'T EAT                                    EAT,3000.554,2994.5156,2875.9248,left,3,left,left,not_eat,not_eat,approach,pos,approach-pos,1,1,986.5
sub-SD,33,0,FALSE,left,approach,pos,cake32_crop.jpg,1,4,TRUE,32,1,3003.7131,777,DON'T EAT                                    EAT,3002.5723,2994.5156,2875.9248,left,1,right,right,eat,eat,approach,pos,approach-pos,1,1,1140.8000000002794
sub-SD,34,0,FALSE,left,approach,pos,cake8_crop.jpg,1,4,TRUE,33,1,3005.5452,777,DON'T EAT                                    EAT,3004.5906,2994.5156,2875.9248,left,1,right,right,eat,eat,approach,pos,approach-pos,1,1,954.6000000000931
sub-SD,35,0,TRUE,left,avoid,pos,meat7_crop.jpg,1,4,TRUE,34,3,3007.782,777,DON'T EAT                                    EAT,3006.609,2994.5156,2875.9248,left,3,left,left,not_eat,not_eat,approach,pos,approach-pos,1,1,1173
sub-SD,36,0,FALSE,left,approach,pos,cake23_crop.jpg,1,4,TRUE,35,1,3009.8228,777,DON'T EAT                                    EAT,3008.6274,2994.5156,2875.9248,left,1,right,right,eat,eat,approach,pos,approach-pos,1,1,1195.3999999999069
sub-SD,37,0,FALSE,left,approach,pos,cake27_crop.jpg,1,4,TRUE,36,1,3011.6433,777,DON'T EAT                                    EAT,3010.6455,2994.5156,2875.9248,left,1,right,right,eat,eat,approach,pos,approach-pos,1,1,997.8000000002794
sub-SD,38,0,FALSE,left,approach,pos,cake22_crop.jpg,1,4,TRUE,37,1,3013.454,777,DON'T EAT                                    EAT,3012.664,2994.5156,2875.9248,left,1,right,right,eat,eat,approach,pos,approach-pos,1,1,790
sub-SD,39,0,FALSE,left,approach,pos,cake28_crop.jpg,1,4,TRUE,38,1,3015.417,777,DON'T EAT                                    EAT,3014.6824,2994.5156,2875.9248,left,1,right,right,eat,eat,approach,pos,approach-pos,1,1,734.5999999996275
sub-SD,40,0,FALSE,left,approach,pos,cake26_crop.jpg,1,4,TRUE,39,1,3017.4797,777,DON'T EAT                                    EAT,3016.7007,2994.5156,2875.9248,left,1,right,right,eat,eat,approach,pos,approach-pos,1,1,779
sub-SD,41,3,FALSE,left,avoid,pos,meat4_crop.jpg,1,5,TRUE,40,3,3037.889,777,DON'T EAT                                    EAT,3035.9666,3031.9465,2875.9248,left,3,left,left,not_eat,not_eat,avoid,pos,avoid-pos,1,1,1922.3999999999069
sub-SD,42,3,TRUE,left,approach,pos,cake30_crop.jpg,1,5,TRUE,41,1,3038.9172,777,DON'T EAT                                    EAT,3037.9849,3031.9465,2875.9248,left,1,right,right,eat,eat,avoid,pos,avoid-pos,1,1,932.2999999998137
sub-SD,43,3,FALSE,left,avoid,pos,meat6_crop.jpg,1,5,TRUE,42,3,3040.925,777,DON'T EAT                                    EAT,3040.0032,3031.9465,2875.9248,left,3,left,left,not_eat,not_eat,avoid,pos,avoid-pos,1,1,921.7999999998137
sub-SD,44,3,TRUE,left,approach,neg,insect2_crop.jpg,1,5,TRUE,43,1,3043.1619,777,DON'T EAT                                    EAT,3042.0217,3031.9465,2875.9248,left,1,right,right,eat,eat,avoid,pos,avoid-pos,1,1,1140.2000000001863
sub-SD,45,3,FALSE,left,avoid,pos,meat20_crop.jpg,1,5,TRUE,44,3,3044.8955,777,DON'T EAT                                    EAT,3044.04,3031.9465,2875.9248,left,3,left,left,not_eat,not_eat,avoid,pos,avoid-pos,1,1,855.5
sub-SD,46,3,FALSE,left,avoid,pos,meat13_crop.jpg,1,5,TRUE,45,3,3047.1548,777,DON'T EAT                                    EAT,3046.0583,3031.9465,2875.9248,left,3,left,left,not_eat,not_eat,avoid,pos,avoid-pos,1,1,1096.4999999995343
sub-SD,47,3,FALSE,left,avoid,pos,meat23_crop.jpg,1,5,TRUE,46,3,3048.7021,777,DON'T EAT                                    EAT,3048.0767,3031.9465,2875.9248,left,3,left,left,not_eat,not_eat,avoid,pos,avoid-pos,1,1,625.3999999999069
sub-SD,48,3,FALSE,left,avoid,pos,meat37_crop.jpg,1,5,TRUE,47,3,3050.7307,777,DON'T EAT                                    EAT,3050.095,3031.9465,2875.9248,left,3,left,left,not_eat,not_eat,avoid,pos,avoid-pos,1,1,635.7000000001863
sub-SD,49,3,FALSE,left,avoid,pos,meat25_crop.jpg,1,5,TRUE,48,3,3053.858,777,DON'T EAT                                    EAT,3052.1133,3031.9465,2875.9248,left,3,left,left,not_eat,not_eat,avoid,pos,avoid-pos,1,1,1744.7000000001863
sub-SD,50,3,FALSE,left,avoid,pos,meat31_crop.jpg,1,5,TRUE,49,3,3054.9978,777,DON'T EAT                                    EAT,3054.1316,3031.9465,2875.9248,left,3,left,left,not_eat,not_eat,avoid,pos,avoid-pos,1,1,866.2000000001863
sub-SD,51,1,FALSE,left,approach,neg,insect23_crop.jpg,1,6,TRUE,50,1,3072.055,777,DON'T EAT                                    EAT,3071.0457,3067.0425,2875.9248,left,1,right,right,eat,eat,approach,neg,approach-neg,1,1,1009.2999999998137
sub-SD,52,1,FALSE,left,approach,neg,insect15_crop.jpg,1,6,TRUE,51,1,3073.7222,777,DON'T EAT                                    EAT,3073.0642,3067.0425,2875.9248,left,1,right,right,eat,eat,approach,neg,approach-neg,1,1,658.0000000004657
sub-SD,53,1,TRUE,left,avoid,neg,fungus4_crop.jpg,1,6,TRUE,52,3,3075.9592,777,DON'T EAT                                    EAT,3075.0823,3067.0425,2875.9248,left,3,left,left,not_eat,not_eat,approach,neg,approach-neg,1,1,876.8999999999069
sub-SD,54,1,FALSE,left,approach,neg,insect14_crop.jpg,1,6,TRUE,53,1,3077.715,777,DON'T EAT                                    EAT,3077.1008,3067.0425,2875.9248,left,1,right,right,eat,eat,approach,neg,approach-neg,1,1,614.1999999997206
sub-SD,55,1,FALSE,left,approach,neg,insect40_crop.jpg,1,6,TRUE,54,1,3079.953,777,DON'T EAT                                    EAT,3079.1191,3067.0425,2875.9248,left,1,right,right,eat,eat,approach,neg,approach-neg,1,1,833.8999999999069
sub-SD,56,1,FALSE,left,approach,neg,insect9_crop.jpg,1,6,TRUE,55,1,3081.8396,777,DON'T EAT                                    EAT,3081.1375,3067.0425,2875.9248,left,1,right,right,eat,eat,approach,neg,approach-neg,1,1,702.0999999996275
sub-SD,57,1,TRUE,left,avoid,pos,meat24_crop.jpg,1,6,TRUE,56,3,3084.0117,777,DON'T EAT                                    EAT,3083.1558,3067.0425,2875.9248,left,3,left,left,not_eat,not_eat,approach,neg,approach-neg,1,1,855.9000000003725
sub-SD,58,1,FALSE,left,approach,neg,insect27_crop.jpg,1,6,TRUE,57,1,3085.7559,777,DON'T EAT                                    EAT,3085.174,3067.0425,2875.9248,left,1,right,right,eat,eat,approach,neg,approach-neg,1,1,581.8999999999069
sub-SD,59,1,FALSE,left,approach,neg,insect29_crop.jpg,1,6,TRUE,58,1,3087.719,777,DON'T EAT                                    EAT,3087.1924,3067.0425,2875.9248,left,1,right,right,eat,eat,approach,neg,approach-neg,1,1,526.6000000000931
sub-SD,60,1,FALSE,left,approach,neg,insect35_crop.jpg,1,6,TRUE,59,1,3089.7485,777,DON'T EAT                                    EAT,3089.2107,3067.0425,2875.9248,left,1,right,right,eat,eat,approach,neg,approach-neg,1,1,537.7999999998137
sub-SD,61,0,FALSE,left,avoid,neg,fungus10_crop.jpg,1,7,TRUE,60,3,3110.396,777,DON'T EAT                                    EAT,3109.2441,3105.2407,2875.9248,left,3,left,left,not_eat,not_eat,avoid,neg,avoid-neg,1,1,1151.8999999999069
sub-SD,62,0,TRUE,left,approach,neg,insect25_crop.jpg,1,7,TRUE,61,1,3112.1838,777,DON'T EAT                                    EAT,3111.2625,3105.2407,2875.9248,left,1,right,right,eat,eat,avoid,neg,avoid-neg,1,1,921.2999999998137
sub-SD,63,0,FALSE,left,avoid,neg,fungus12_crop.jpg,1,7,TRUE,62,3,3113.7856,777,DON'T EAT                                    EAT,3113.2808,3105.2407,2875.9248,left,3,left,left,not_eat,not_eat,avoid,neg,avoid-neg,1,1,504.8000000002794
sub-SD,64,0,FALSE,left,avoid,neg,fungus28_crop.jpg,1,7,TRUE,63,3,3115.8257,777,DON'T EAT                                    EAT,3115.299,3105.2407,2875.9248,left,3,left,left,not_eat,not_eat,avoid,neg,avoid-neg,1,1,526.6999999997206
sub-SD,65,0,FALSE,left,avoid,neg,fungus23_crop.jpg,1,7,TRUE,64,3,3117.8992,777,DON'T EAT                                    EAT,3117.3174,3105.2407,2875.9248,left,3,left,left,not_eat,not_eat,avoid,neg,avoid-neg,1,1,581.7999999998137
sub-SD,66,0,FALSE,left,avoid,neg,fungus25_crop.jpg,1,7,TRUE,65,3,3119.8516,777,DON'T EAT                                    EAT,3119.3357,3105.2407,2875.9248,left,3,left,left,not_eat,not_eat,avoid,neg,avoid-neg,1,1,515.8999999999069
sub-SD,67,0,FALSE,left,avoid,neg,fungus15_crop.jpg,1,7,TRUE,66,3,3121.8142,777,DON'T EAT                                    EAT,3121.354,3105.2407,2875.9248,left,3,left,left,not_eat,not_eat,avoid,neg,avoid-neg,1,1,460.1999999997206
sub-SD,68,0,FALSE,left,avoid,neg,fungus31_crop.jpg,1,7,TRUE,67,3,3123.9429,777,DON'T EAT                                    EAT,3123.3726,3105.2407,2875.9248,left,3,left,left,not_eat,not_eat,avoid,neg,avoid-neg,1,1,570.2999999998137
sub-SD,69,0,TRUE,left,approach,pos,cake1_crop.jpg,1,7,TRUE,68,1,3126.2466,777,DON'T EAT                                    EAT,3125.3909,3105.2407,2875.9248,left,1,right,right,eat,eat,avoid,neg,avoid-neg,1,1,855.7000000001863
sub-SD,70,0,FALSE,left,avoid,neg,fungus30_crop.jpg,1,7,TRUE,69,3,3128.0457,777,DON'T EAT                                    EAT,3127.4092,3105.2407,2875.9248,left,3,left,left,not_eat,not_eat,avoid,neg,avoid-neg,1,1,636.5
sub-SD,71,0,FALSE,right,avoid,neg,fungus11_crop.jpg,1,8,TRUE,70,3,3146.6858,777,DON'T EAT                                    EAT,3144.7568,3140.7368,2875.9248,left,3,left,left,not_eat,not_eat,avoid,neg,avoid-neg,1,1,1929
sub-SD,72,0,FALSE,right,avoid,neg,fungus22_crop.jpg,1,8,TRUE,71,3,3147.8833,777,DON'T EAT                                    EAT,3146.7754,3140.7368,2875.9248,left,3,left,left,not_eat,not_eat,avoid,neg,avoid-neg,1,1,1107.8999999999069
sub-SD,73,0,FALSE,right,avoid,neg,fungus7_crop.jpg,1,8,TRUE,72,3,3149.704,777,DON'T EAT                                    EAT,3148.7937,3140.7368,2875.9248,left,3,left,left,not_eat,not_eat,avoid,neg,avoid-neg,1,1,910.2999999998137
sub-SD,74,0,FALSE,right,avoid,neg,fungus20_crop.jpg,1,8,TRUE,73,3,3152.183,777,DON'T EAT                                    EAT,3150.812,3140.7368,2875.9248,left,3,left,left,not_eat,not_eat,avoid,neg,avoid-neg,1,1,1371
sub-SD,75,0,FALSE,right,avoid,neg,fungus39_crop.jpg,1,8,TRUE,74,3,3154.5308,777,DON'T EAT                                    EAT,3152.8303,3140.7368,2875.9248,left,3,left,left,not_eat,not_eat,avoid,neg,avoid-neg,1,1,1700.4999999995343
sub-SD,76,0,FALSE,right,avoid,neg,fungus27_crop.jpg,1,8,TRUE,75,3,3155.6277,777,DON'T EAT                                    EAT,3154.8486,3140.7368,2875.9248,left,3,left,left,not_eat,not_eat,avoid,neg,avoid-neg,1,1,779.1000000005588
sub-SD,77,0,TRUE,right,approach,pos,cake8_crop.jpg,1,8,TRUE,76,1,3157.7227,777,DON'T EAT                                    EAT,3156.867,3140.7368,2875.9248,left,1,right,right,eat,eat,avoid,neg,avoid-neg,1,1,855.6999999997206
sub-SD,78,0,TRUE,right,approach,neg,insect32_crop.jpg,1,8,TRUE,77,3,3159.6423,777,DON'T EAT                                    EAT,3158.8853,3140.7368,2875.9248,left,3,left,left,not_eat,not_eat,avoid,neg,avoid-neg,0,0,757
sub-SD,79,0,FALSE,right,avoid,neg,fungus5_crop.jpg,1,8,TRUE,78,3,3161.913,777,DON'T EAT                                    EAT,3160.9036,3140.7368,2875.9248,left,3,left,left,not_eat,not_eat,avoid,neg,avoid-neg,1,1,1009.3999999999069
sub-SD,80,0,FALSE,right,avoid,neg,fungus23_crop.jpg,1,8,TRUE,79,3,3163.723,777,DON'T EAT                                    EAT,3162.922,3140.7368,2875.9248,left,3,left,left,not_eat,not_eat,avoid,neg,avoid-neg,1,1,801
sub-SD,81,2,FALSE,left,approach,neg,insect17_crop.jpg,2,9,TRUE,80,1,3788.0103,777,DON'T EAT                                    EAT,3786.4233,3782.4033,3769.2705,right,1,right,right,eat,eat,approach,neg,approach-neg,1,1,1587
sub-SD,82,2,FALSE,left,approach,neg,insect21_crop.jpg,2,9,TRUE,81,1,3789.4446,777,DON'T EAT                                    EAT,3788.442,3782.4033,3769.2705,right,1,right,right,eat,eat,approach,neg,approach-neg,1,1,1002.5999999996275
sub-SD,83,2,TRUE,left,avoid,neg,fungus1_crop.jpg,2,9,TRUE,82,3,3791.423,777,DON'T EAT                                    EAT,3790.4604,3782.4033,3769.2705,right,3,left,left,not_eat,not_eat,approach,neg,approach-neg,1,1,962.6000000000931
sub-SD,84,2,FALSE,left,approach,neg,insect10_crop.jpg,2,9,TRUE,83,1,3793.8096,777,DON'T EAT                                    EAT,3792.4785,3782.4033,3769.2705,right,1,right,right,eat,eat,approach,neg,approach-neg,1,1,1331.1000000000931
sub-SD,85,2,FALSE,left,approach,neg,insect6_crop.jpg,2,9,TRUE,84,1,3795.221,777,DON'T EAT                                    EAT,3794.4963,3782.4033,3769.2705,right,1,right,right,eat,eat,approach,neg,approach-neg,1,1,724.7000000001863
sub-SD,86,2,FALSE,left,approach,neg,insect37_crop.jpg,2,9,TRUE,85,1,3797.1902,777,DON'T EAT                                    EAT,3796.5151,3782.4033,3769.2705,right,1,right,right,eat,eat,approach,neg,approach-neg,1,1,675.1000000000931
sub-SD,87,2,FALSE,left,approach,neg,insect33_crop.jpg,2,9,TRUE,86,1,3799.156,777,DON'T EAT                                    EAT,3798.5334,3782.4033,3769.2705,right,1,right,right,eat,eat,approach,neg,approach-neg,1,1,622.6000000000931
sub-SD,88,2,FALSE,left,approach,neg,insect39_crop.jpg,2,9,TRUE,87,1,3801.102,777,DON'T EAT                                    EAT,3800.552,3782.4033,3769.2705,right,1,right,right,eat,eat,approach,neg,approach-neg,1,1,550
sub-SD,89,2,TRUE,left,avoid,pos,meat19_crop.jpg,2,9,TRUE,88,3,3803.564,777,DON'T EAT                                    EAT,3802.57,3782.4033,3769.2705,right,3,left,left,not_eat,not_eat,approach,neg,approach-neg,1,1,994
sub-SD,90,2,FALSE,left,approach,neg,insect7_crop.jpg,2,9,TRUE,89,1,3805.191,777,DON'T EAT                                    EAT,3804.5886,3782.4033,3769.2705,right,1,right,right,eat,eat,approach,neg,approach-neg,1,1,602.3999999999069
sub-SD,91,1,TRUE,left,approach,pos,cake31_crop.jpg,2,10,TRUE,90,1,3823.6711,777,DON'T EAT                                    EAT,3822.3367,3818.3167,3769.2705,right,1,right,right,eat,eat,avoid,neg,avoid-neg,1,1,1334.4000000003725
sub-SD,92,1,FALSE,left,avoid,neg,fungus16_crop.jpg,2,10,TRUE,91,3,3825.3962,777,DON'T EAT                                    EAT,3824.3547,3818.3167,3769.2705,right,3,left,left,not_eat,not_eat,avoid,neg,avoid-neg,1,1,1041.5000000004657
sub-SD,93,1,FALSE,left,avoid,neg,fungus32_crop.jpg,2,10,TRUE,92,1,3827.1677,777,DON'T EAT                                    EAT,3826.3735,3818.3167,3769.2705,right,1,right,right,eat,eat,avoid,neg,avoid-neg,0,0,794.2000000001863
sub-SD,94,1,FALSE,left,avoid,neg,fungus13_crop.jpg,2,10,TRUE,93,3,3829.4048,777,DON'T EAT                                    EAT,3828.3916,3818.3167,3769.2705,right,3,left,left,not_eat,not_eat,avoid,neg,avoid-neg,1,1,1013.1999999997206
sub-SD,95,1,FALSE,left,avoid,neg,fungus18_crop.jpg,2,10,TRUE,94,3,3831.0623,777,DON'T EAT                                    EAT,3830.4102,3818.3167,3769.2705,right,3,left,left,not_eat,not_eat,avoid,neg,avoid-neg,1,1,652.1000000005588
sub-SD,96,1,FALSE,left,avoid,neg,fungus11_crop.jpg,2,10,TRUE,95,3,3833.706,777,DON'T EAT                                    EAT,3832.4282,3818.3167,3769.2705,right,3,left,left,not_eat,not_eat,avoid,neg,avoid-neg,1,1,1277.8000000002794
sub-SD,97,1,FALSE,left,avoid,neg,fungus14_crop.jpg,2,10,TRUE,96,3,3835.241,777,DON'T EAT                                    EAT,3834.4465,3818.3167,3769.2705,right,3,left,left,not_eat,not_eat,avoid,neg,avoid-neg,1,1,794.5
sub-SD,98,1,FALSE,left,avoid,neg,fungus37_crop.jpg,2,10,TRUE,97,3,3837.7324,777,DON'T EAT                                    EAT,3836.465,3818.3167,3769.2705,right,3,left,left,not_eat,not_eat,avoid,neg,avoid-neg,1,1,1267.3999999999069
sub-SD,99,1,FALSE,left,avoid,neg,fungus40_crop.jpg,2,10,TRUE,98,3,3840.2058,777,DON'T EAT                                    EAT,3838.4834,3818.3167,3769.2705,right,3,left,left,not_eat,not_eat,avoid,neg,avoid-neg,1,1,1722.4000000003725
sub-SD,100,1,TRUE,left,approach,neg,insect12_crop.jpg,2,10,TRUE,99,1,3841.558,777,DON'T EAT                                    EAT,3840.5017,3818.3167,3769.2705,right,1,right,right,eat,eat,avoid,neg,avoid-neg,1,1,1056.3000000002794
sub-SD,101,1,FALSE,right,approach,pos,cake3_crop.jpg,2,11,TRUE,100,1,3861.1636,777,DON'T EAT                                    EAT,3860.0845,3856.0647,3769.2705,right,1,right,right,eat,eat,approach,pos,approach-pos,1,1,1079.0999999996275
sub-SD,102,1,TRUE,right,avoid,neg,fungus15_crop.jpg,2,11,TRUE,101,1,3863.118,777,DON'T EAT                                    EAT,3862.1028,3856.0647,3769.2705,right,1,right,right,eat,eat,approach,pos,approach-pos,0,0,1015.1999999997206
sub-SD,103,1,FALSE,right,approach,pos,cake36_crop.jpg,2,11,TRUE,102,1,3865.1682,777,DON'T EAT                                    EAT,3864.1213,3856.0647,3769.2705,right,1,right,right,eat,eat,approach,pos,approach-pos,1,1,1046.9000000003725
sub-SD,104,1,FALSE,right,approach,pos,cake21_crop.jpg,2,11,TRUE,103,1,3867.332,777,DON'T EAT                                    EAT,3866.1394,3856.0647,3769.2705,right,1,right,right,eat,eat,approach,pos,approach-pos,1,1,1192.6000000000931
sub-SD,105,1,FALSE,right,approach,pos,cake7_crop.jpg,2,11,TRUE,104,1,3869.1946,777,DON'T EAT                                    EAT,3868.158,3856.0647,3769.2705,right,1,right,right,eat,eat,approach,pos,approach-pos,1,1,1036.5999999996275
sub-SD,106,1,FALSE,right,approach,pos,cake33_crop.jpg,2,11,TRUE,105,1,3870.9695,777,DON'T EAT                                    EAT,3870.1765,3856.0647,3769.2705,right,1,right,right,eat,eat,approach,pos,approach-pos,1,1,793
sub-SD,107,1,FALSE,right,approach,pos,cake28_crop.jpg,2,11,TRUE,106,1,3872.8076,777,DON'T EAT                                    EAT,3872.1946,3856.0647,3769.2705,right,1,right,right,eat,eat,approach,pos,approach-pos,1,1,613.0000000004657
sub-SD,108,1,TRUE,right,avoid,pos,meat15_crop.jpg,2,11,TRUE,107,3,3875.172,777,DON'T EAT                                    EAT,3874.213,3856.0647,3769.2705,right,3,left,left,not_eat,not_eat,approach,pos,approach-pos,1,1,959
sub-SD,109,1,FALSE,right,approach,pos,cake14_crop.jpg,2,11,TRUE,108,1,3876.8875,777,DON'T EAT                                    EAT,3876.2312,3856.0647,3769.2705,right,1,right,right,eat,eat,approach,pos,approach-pos,1,1,656.2999999998137
sub-SD,110,1,FALSE,right,approach,pos,cake25_crop.jpg,2,11,TRUE,109,1,3878.8813,777,DON'T EAT                                    EAT,3878.2493,3856.0647,3769.2705,right,1,right,right,eat,eat,approach,pos,approach-pos,1,1,632
sub-SD,111,1,FALSE,right,approach,neg,insect1_crop.jpg,2,12,TRUE,110,1,3897.152,777,DON'T EAT                                    EAT,3896.348,3892.3281,3769.2705,right,1,right,right,eat,eat,approach,neg,approach-neg,1,1,804
sub-SD,112,1,FALSE,right,approach,neg,insect14_crop.jpg,2,12,TRUE,111,1,3898.9883,777,DON'T EAT                                    EAT,3898.3665,3892.3281,3769.2705,right,1,right,right,eat,eat,approach,neg,approach-neg,1,1,621.7999999998137
sub-SD,113,1,FALSE,right,approach,neg,insect37_crop.jpg,2,12,TRUE,112,1,3901.072,777,DON'T EAT                                    EAT,3900.3848,3892.3281,3769.2705,right,1,right,right,eat,eat,approach,neg,approach-neg,1,1,687.2000000001863
sub-SD,114,1,FALSE,right,approach,neg,insect3_crop.jpg,2,12,TRUE,113,1,3903.2617,777,DON'T EAT                                    EAT,3902.403,3892.3281,3769.2705,right,1,right,right,eat,eat,approach,neg,approach-neg,1,1,858.7000000001863
sub-SD,115,1,FALSE,right,approach,neg,insect16_crop.jpg,2,12,TRUE,114,1,3905.066,777,DON'T EAT                                    EAT,3904.4214,3892.3281,3769.2705,right,1,right,right,eat,eat,approach,neg,approach-neg,1,1,644.5999999996275
sub-SD,116,1,TRUE,right,avoid,pos,meat21_crop.jpg,2,12,TRUE,115,3,3907.2937,777,DON'T EAT                                    EAT,3906.44,3892.3281,3769.2705,right,3,left,left,not_eat,not_eat,approach,neg,approach-neg,1,1,853.7000000001863
sub-SD,117,1,FALSE,right,approach,neg,insect23_crop.jpg,2,12,TRUE,116,1,3908.8489,777,DON'T EAT                                    EAT,3908.4583,3892.3281,3769.2705,right,1,right,right,eat,eat,approach,neg,approach-neg,1,1,390.60000000009313
sub-SD,118,1,TRUE,right,avoid,neg,fungus32_crop.jpg,2,12,TRUE,117,1,3911.0376,777,DON'T EAT                                    EAT,3910.4763,3892.3281,3769.2705,right,1,right,right,eat,eat,approach,neg,approach-neg,0,0,561.3000000002794
sub-SD,119,1,FALSE,right,approach,neg,insect29_crop.jpg,2,12,TRUE,118,1,3913.582,777,DON'T EAT                                    EAT,3912.4946,3892.3281,3769.2705,right,1,right,right,eat,eat,approach,neg,approach-neg,1,1,1087.3999999999069
sub-SD,120,1,FALSE,right,approach,neg,insect6_crop.jpg,2,12,TRUE,119,1,3915.2222,777,DON'T EAT                                    EAT,3914.5125,3892.3281,3769.2705,right,1,right,right,eat,eat,approach,neg,approach-neg,1,1,709.7000000001863
sub-SD,121,3,FALSE,left,approach,pos,cake5_crop.jpg,2,13,TRUE,120,1,3934.1228,777,DON'T EAT                                    EAT,3932.8115,3928.7917,3769.2705,right,1,right,right,eat,eat,approach,pos,approach-pos,1,1,1311.3000000002794
sub-SD,122,3,FALSE,left,approach,pos,cake36_crop.jpg,2,13,TRUE,121,1,3935.7046,777,DON'T EAT                                    EAT,3934.83,3928.7917,3769.2705,right,1,right,right,eat,eat,approach,pos,approach-pos,1,1,874.6000000000931
sub-SD,123,3,FALSE,left,approach,pos,cake3_crop.jpg,2,13,TRUE,122,1,3937.4631,777,DON'T EAT                                    EAT,3936.8481,3928.7917,3769.2705,right,1,right,right,eat,eat,approach,pos,approach-pos,1,1,615
sub-SD,124,3,FALSE,left,approach,pos,cake24_crop.jpg,2,13,TRUE,123,1,3939.48,777,DON'T EAT                                    EAT,3938.8667,3928.7917,3769.2705,right,1,right,right,eat,eat,approach,pos,approach-pos,1,1,613.2999999998137
sub-SD,125,3,FALSE,left,approach,pos,cake6_crop.jpg,2,13,TRUE,124,1,3941.4966,777,DON'T EAT                                    EAT,3940.885,3928.7917,3769.2705,right,1,right,right,eat,eat,approach,pos,approach-pos,1,1,611.6000000000931
sub-SD,126,3,TRUE,left,avoid,pos,meat5_crop.jpg,2,13,TRUE,125,3,3944.2664,777,DON'T EAT                                    EAT,3942.9033,3928.7917,3769.2705,right,3,left,left,not_eat,not_eat,approach,pos,approach-pos,1,1,1363.1000000000931
sub-SD,127,3,FALSE,left,approach,pos,cake16_crop.jpg,2,13,TRUE,126,1,3945.9268,777,DON'T EAT                                    EAT,3944.9216,3928.7917,3769.2705,right,1,right,right,eat,eat,approach,pos,approach-pos,1,1,1005.2000000001863
sub-SD,128,3,FALSE,left,approach,pos,cake35_crop.jpg,2,13,TRUE,127,1,3947.9512,777,DON'T EAT                                    EAT,3946.94,3928.7917,3769.2705,right,1,right,right,eat,eat,approach,pos,approach-pos,1,1,1011.2000000001863
sub-SD,129,3,FALSE,left,approach,pos,cake11_crop.jpg,2,13,TRUE,128,1,3949.6672,777,DON'T EAT                                    EAT,3948.958,3928.7917,3769.2705,right,1,right,right,eat,eat,approach,pos,approach-pos,1,1,709.1999999997206
sub-SD,130,3,TRUE,left,avoid,neg,fungus39_crop.jpg,2,13,TRUE,129,3,3951.8542,777,DON'T EAT                                    EAT,3950.9766,3928.7917,3769.2705,right,3,left,left,not_eat,not_eat,approach,pos,approach-pos,1,1,877.6000000000931
sub-SD,131,2,FALSE,left,avoid,neg,fungus3_crop.jpg,2,14,TRUE,130,--,NA,777,DON'T EAT                                    EAT,3970.5264,3966.5063,3769.2705,right,--,NA,NA,no_response,no_response,avoid,neg,avoid-neg,NA,NA,NA
sub-SD,132,2,FALSE,left,avoid,neg,fungus38_crop.jpg,2,14,TRUE,131,1,3972.6182,777,DON'T EAT                                    EAT,3972.5444,3966.5063,3769.2705,right,1,right,right,eat,eat,avoid,neg,avoid-neg,0,0,73.79999999934807
sub-SD,133,2,TRUE,left,approach,neg,insect11_crop.jpg,2,14,TRUE,132,1,3975.4421,777,DON'T EAT                                    EAT,3974.5625,3966.5063,3769.2705,right,1,right,right,eat,eat,avoid,neg,avoid-neg,1,1,879.6000000000931
sub-SD,134,2,FALSE,left,avoid,neg,fungus24_crop.jpg,2,14,TRUE,133,3,3977.968,777,DON'T EAT                                    EAT,3976.5813,3966.5063,3769.2705,right,3,left,left,not_eat,not_eat,avoid,neg,avoid-neg,1,1,1386.7000000001863
sub-SD,135,2,FALSE,left,avoid,neg,fungus9_crop.jpg,2,14,TRUE,134,3,3979.437,777,DON'T EAT                                    EAT,3978.5996,3966.5063,3769.2705,right,3,left,left,not_eat,not_eat,avoid,neg,avoid-neg,1,1,837.3999999999069
sub-SD,136,2,FALSE,left,avoid,neg,fungus36_crop.jpg,2,14,TRUE,135,3,3981.422,777,DON'T EAT                                    EAT,3980.618,3966.5063,3769.2705,right,3,left,left,not_eat,not_eat,avoid,neg,avoid-neg,1,1,804
sub-SD,137,2,FALSE,left,avoid,neg,fungus33_crop.jpg,2,14,TRUE,136,3,3983.8845,777,DON'T EAT                                    EAT,3982.6365,3966.5063,3769.2705,right,3,left,left,not_eat,not_eat,avoid,neg,avoid-neg,1,1,1248
sub-SD,138,2,TRUE,left,approach,pos,cake14_crop.jpg,2,14,TRUE,137,1,3985.524,777,DON'T EAT                                    EAT,3984.6545,3966.5063,3769.2705,right,1,right,right,eat,eat,avoid,neg,avoid-neg,1,1,869.5
sub-SD,139,2,FALSE,left,avoid,neg,fungus26_crop.jpg,2,14,TRUE,138,3,3987.507,777,DON'T EAT                                    EAT,3986.6729,3966.5063,3769.2705,right,3,left,left,not_eat,not_eat,avoid,neg,avoid-neg,1,1,834.1000000000931
sub-SD,140,2,FALSE,left,avoid,neg,fungus35_crop.jpg,2,14,TRUE,139,3,3989.4414,777,DON'T EAT                                    EAT,3988.6914,3966.5063,3769.2705,right,3,left,left,not_eat,not_eat,avoid,neg,avoid-neg,1,1,750
sub-SD,141,3,FALSE,right,approach,pos,cake38_crop.jpg,2,15,TRUE,140,1,4007.801,777,DON'T EAT                                    EAT,4006.923,4002.903,3769.2705,right,1,right,right,eat,eat,approach,pos,approach-pos,1,1,878
sub-SD,142,3,TRUE,right,avoid,pos,meat40_crop.jpg,2,15,TRUE,141,3,4009.9038,777,DON'T EAT                                    EAT,4008.9414,4002.903,3769.2705,right,3,left,left,not_eat,not_eat,approach,pos,approach-pos,1,1,962.3999999994412
sub-SD,143,3,FALSE,right,approach,pos,cake24_crop.jpg,2,15,TRUE,142,1,4011.5427,777,DON'T EAT                                    EAT,4010.9597,4002.903,3769.2705,right,1,right,right,eat,eat,approach,pos,approach-pos,1,1,583.0000000004657
sub-SD,144,3,FALSE,right,approach,pos,cake15_crop.jpg,2,15,TRUE,143,1,4013.8762,777,DON'T EAT                                    EAT,4012.978,4002.903,3769.2705,right,1,right,right,eat,eat,approach,pos,approach-pos,1,1,898.2000000001863
sub-SD,145,3,FALSE,right,approach,pos,cake10_crop.jpg,2,15,TRUE,144,1,4016.5698,777,DON'T EAT                                    EAT,4014.9966,4002.903,3769.2705,right,1,right,right,eat,eat,approach,pos,approach-pos,1,1,1573.2000000001863
sub-SD,146,3,FALSE,right,approach,pos,cake29_crop.jpg,2,15,TRUE,145,1,4018.1956,777,DON'T EAT                                    EAT,4017.015,4002.903,3769.2705,right,1,right,right,eat,eat,approach,pos,approach-pos,1,1,1180.6000000000931
sub-SD,147,3,FALSE,right,approach,pos,cake12_crop.jpg,2,15,TRUE,146,1,4020.0464,777,DON'T EAT                                    EAT,4019.0332,4002.903,3769.2705,right,1,right,right,eat,eat,approach,pos,approach-pos,1,1,1013.2000000006519
sub-SD,148,3,FALSE,right,approach,pos,cake27_crop.jpg,2,15,TRUE,147,1,4021.832,777,DON'T EAT                                    EAT,4021.0515,4002.903,3769.2705,right,1,right,right,eat,eat,approach,pos,approach-pos,1,1,780.5
sub-SD,149,3,FALSE,right,approach,pos,cake22_crop.jpg,2,15,TRUE,148,1,4023.8313,777,DON'T EAT                                    EAT,4023.0698,4002.903,3769.2705,right,1,right,right,eat,eat,approach,pos,approach-pos,1,1,761.4999999995343
sub-SD,150,3,TRUE,right,avoid,neg,fungus35_crop.jpg,2,15,TRUE,149,3,4026.0916,777,DON'T EAT                                    EAT,4025.0881,4002.903,3769.2705,right,3,left,left,not_eat,not_eat,approach,pos,approach-pos,1,1,1003.5
sub-SD,151,0,FALSE,left,avoid,pos,meat33_crop.jpg,2,16,TRUE,150,3,4045.6924,777,DON'T EAT                                    EAT,4044.2876,4040.2676,3769.2705,right,3,left,left,not_eat,not_eat,avoid,pos,avoid-pos,1,1,1404.7999999998137
sub-SD,152,0,FALSE,left,avoid,pos,meat40_crop.jpg,2,16,TRUE,151,3,4047.298,777,DON'T EAT                                    EAT,4046.306,4040.2676,3769.2705,right,3,left,left,not_eat,not_eat,avoid,pos,avoid-pos,1,1,992
sub-SD,153,0,TRUE,left,approach,neg,insect38_crop.jpg,2,16,TRUE,152,1,4049.1365,777,DON'T EAT                                    EAT,4048.3242,4040.2676,3769.2705,right,1,right,right,eat,eat,avoid,pos,avoid-pos,1,1,812.2999999998137
sub-SD,154,0,TRUE,left,approach,pos,cake19_crop.jpg,2,16,TRUE,153,1,4051.3958,777,DON'T EAT                                    EAT,4050.3425,4040.2676,3769.2705,right,1,right,right,eat,eat,avoid,pos,avoid-pos,1,1,1053.2999999998137
sub-SD,155,0,FALSE,left,avoid,pos,meat22_crop.jpg,2,16,TRUE,154,3,4053.2695,777,DON'T EAT                                    EAT,4052.3606,4040.2676,3769.2705,right,3,left,left,not_eat,not_eat,avoid,pos,avoid-pos,1,1,908.8999999999069
sub-SD,156,0,FALSE,left,avoid,pos,meat27_crop.jpg,2,16,TRUE,155,3,4055.5198,777,DON'T EAT                                    EAT,4054.3792,4040.2676,3769.2705,right,3,left,left,not_eat,not_eat,avoid,pos,avoid-pos,1,1,1140.6000000000931
sub-SD,157,0,FALSE,left,avoid,pos,meat39_crop.jpg,2,16,TRUE,156,3,4057.0454,777,DON'T EAT                                    EAT,4056.3975,4040.2676,3769.2705,right,3,left,left,not_eat,not_eat,avoid,pos,avoid-pos,1,1,647.8999999999069
sub-SD,158,0,FALSE,left,avoid,pos,meat9_crop.jpg,2,16,TRUE,157,3,4058.8806,777,DON'T EAT                                    EAT,4058.4158,4040.2676,3769.2705,right,3,left,left,not_eat,not_eat,avoid,pos,avoid-pos,1,1,464.79999999981374
sub-SD,159,0,FALSE,left,avoid,pos,meat38_crop.jpg,2,16,TRUE,158,3,4060.943,777,DON'T EAT                                    EAT,4060.434,4040.2676,3769.2705,right,3,left,left,not_eat,not_eat,avoid,pos,avoid-pos,1,1,509
sub-SD,160,0,FALSE,left,avoid,pos,meat8_crop.jpg,2,16,TRUE,159,3,4062.9705,777,DON'T EAT                                    EAT,4062.4526,4040.2676,3769.2705,right,3,left,left,not_eat,not_eat,avoid,pos,avoid-pos,1,1,517.8999999999069
sub-SD,161,2,FALSE,left,avoid,pos,meat28_crop.jpg,3,17,TRUE,160,3,4257.7007,777,DON'T EAT                                    EAT,4256.4634,4252.4434,4240.7734,left,3,left,left,not_eat,not_eat,avoid,pos,avoid-pos,1,1,1237.300000000745
sub-SD,162,2,FALSE,left,avoid,pos,meat36_crop.jpg,3,17,TRUE,161,3,4259.4556,777,DON'T EAT                                    EAT,4258.482,4252.4434,4240.7734,left,3,left,left,not_eat,not_eat,avoid,pos,avoid-pos,1,1,973.6000000005588
sub-SD,163,2,TRUE,left,approach,neg,insect16_crop.jpg,3,17,TRUE,162,1,4261.4204,777,DON'T EAT                                    EAT,4260.5005,4252.4434,4240.7734,left,1,right,right,eat,eat,avoid,pos,avoid-pos,1,1,919.9000000003725
sub-SD,164,2,FALSE,left,avoid,pos,meat3_crop.jpg,3,17,TRUE,163,3,4263.562,777,DON'T EAT                                    EAT,4262.5186,4252.4434,4240.7734,left,3,left,left,not_eat,not_eat,avoid,pos,avoid-pos,1,1,1043.3999999994412
sub-SD,165,2,FALSE,left,avoid,pos,meat12_crop.jpg,3,17,TRUE,164,3,4265.2466,777,DON'T EAT                                    EAT,4264.537,4252.4434,4240.7734,left,3,left,left,not_eat,not_eat,avoid,pos,avoid-pos,1,1,709.6000000005588
sub-SD,166,2,TRUE,left,approach,pos,cake2_crop.jpg,3,17,TRUE,165,1,4267.4746,777,DON'T EAT                                    EAT,4266.555,4252.4434,4240.7734,left,1,right,right,eat,eat,avoid,pos,avoid-pos,1,1,919.5999999996275
sub-SD,167,2,FALSE,left,avoid,pos,meat26_crop.jpg,3,17,TRUE,166,3,4268.9644,777,DON'T EAT                                    EAT,4268.5737,4252.4434,4240.7734,left,3,left,left,not_eat,not_eat,avoid,pos,avoid-pos,1,1,390.69999999925494
sub-SD,168,2,FALSE,left,avoid,pos,meat10_crop.jpg,3,17,TRUE,167,3,4270.941,777,DON'T EAT                                    EAT,4270.592,4252.4434,4240.7734,left,3,left,left,not_eat,not_eat,avoid,pos,avoid-pos,1,1,349
sub-SD,169,2,FALSE,left,avoid,pos,meat17_crop.jpg,3,17,TRUE,168,3,4272.9355,777,DON'T EAT                                    EAT,4272.6104,4252.4434,4240.7734,left,3,left,left,not_eat,not_eat,avoid,pos,avoid-pos,1,1,325.1000000005588
sub-SD,170,2,FALSE,left,avoid,pos,meat15_crop.jpg,3,17,TRUE,169,3,4275.2,777,DON'T EAT                                    EAT,4274.628,4252.4434,4240.7734,left,3,left,left,not_eat,not_eat,avoid,pos,avoid-pos,1,1,572
sub-SD,171,2,TRUE,right,avoid,neg,fungus37_crop.jpg,3,18,TRUE,170,3,4294.315,777,DON'T EAT                                    EAT,4292.8604,4288.8403,4240.7734,left,3,left,left,not_eat,not_eat,approach,pos,approach-pos,1,1,1454.6000000005588
sub-SD,172,2,FALSE,right,approach,pos,cake40_crop.jpg,3,18,TRUE,171,1,4295.8013,777,DON'T EAT                                    EAT,4294.879,4288.8403,4240.7734,left,1,right,right,eat,eat,approach,pos,approach-pos,1,1,922.2999999998137
sub-SD,173,2,FALSE,right,approach,pos,cake31_crop.jpg,3,18,TRUE,172,1,4297.5225,777,DON'T EAT                                    EAT,4296.897,4288.8403,4240.7734,left,1,right,right,eat,eat,approach,pos,approach-pos,1,1,625.5
sub-SD,174,2,TRUE,right,avoid,pos,meat5_crop.jpg,3,18,TRUE,173,3,4299.874,777,DON'T EAT                                    EAT,4298.9155,4288.8403,4240.7734,left,3,left,left,not_eat,not_eat,approach,pos,approach-pos,1,1,958.5
sub-SD,175,2,FALSE,right,approach,pos,cake5_crop.jpg,3,18,TRUE,174,1,4301.336,777,DON'T EAT                                    EAT,4300.9336,4288.8403,4240.7734,left,1,right,right,eat,eat,approach,pos,approach-pos,1,1,402.3999999994412
sub-SD,176,2,FALSE,right,approach,pos,cake19_crop.jpg,3,18,TRUE,175,1,4303.257,777,DON'T EAT                                    EAT,4302.952,4288.8403,4240.7734,left,1,right,right,eat,eat,approach,pos,approach-pos,1,1,305
sub-SD,177,2,FALSE,right,approach,pos,cake37_crop.jpg,3,18,TRUE,176,1,4305.297,777,DON'T EAT                                    EAT,4304.97,4288.8403,4240.7734,left,1,right,right,eat,eat,approach,pos,approach-pos,1,1,327
sub-SD,178,2,FALSE,right,approach,pos,cake6_crop.jpg,3,18,TRUE,177,1,4307.3926,777,DON'T EAT                                    EAT,4306.989,4288.8403,4240.7734,left,1,right,right,eat,eat,approach,pos,approach-pos,1,1,403.6000000005588
sub-SD,179,2,FALSE,right,approach,pos,cake9_crop.jpg,3,18,TRUE,178,1,4309.4536,777,DON'T EAT                                    EAT,4309.0073,4288.8403,4240.7734,left,1,right,right,eat,eat,approach,pos,approach-pos,1,1,446.29999999981374
sub-SD,180,2,FALSE,right,approach,pos,cake4_crop.jpg,3,18,TRUE,179,1,4311.4795,777,DON'T EAT                                    EAT,4311.0254,4288.8403,4240.7734,left,1,right,right,eat,eat,approach,pos,approach-pos,1,1,454.09999999962747
sub-SD,181,0,FALSE,right,approach,neg,insect21_crop.jpg,3,19,TRUE,180,1,4330.026,777,DON'T EAT                                    EAT,4328.9907,4324.9707,4240.7734,left,1,right,right,eat,eat,approach,neg,approach-neg,1,1,1035.2999999998137
sub-SD,182,0,FALSE,right,approach,neg,insect40_crop.jpg,3,19,TRUE,181,3,4332.0117,777,DON'T EAT                                    EAT,4331.009,4324.9707,4240.7734,left,3,left,left,not_eat,not_eat,approach,neg,approach-neg,0,0,1002.7000000001863
sub-SD,183,0,TRUE,right,avoid,pos,meat9_crop.jpg,3,19,TRUE,182,3,4334.3564,777,DON'T EAT                                    EAT,4333.027,4324.9707,4240.7734,left,3,left,left,not_eat,not_eat,approach,neg,approach-neg,1,1,1329.3999999994412
sub-SD,184,0,FALSE,right,approach,neg,insect30_crop.jpg,3,19,TRUE,183,1,4335.762,777,DON'T EAT                                    EAT,4335.0454,4324.9707,4240.7734,left,1,right,right,eat,eat,approach,neg,approach-neg,1,1,716.5999999996275
sub-SD,185,0,FALSE,right,approach,neg,insect25_crop.jpg,3,19,TRUE,184,1,4337.711,777,DON'T EAT                                    EAT,4337.064,4324.9707,4240.7734,left,1,right,right,eat,eat,approach,neg,approach-neg,1,1,647
sub-SD,186,0,FALSE,right,approach,neg,insect2_crop.jpg,3,19,TRUE,185,1,4339.673,777,DON'T EAT                                    EAT,4339.082,4324.9707,4240.7734,left,1,right,right,eat,eat,approach,neg,approach-neg,1,1,591
sub-SD,187,0,FALSE,right,approach,neg,insect19_crop.jpg,3,19,TRUE,186,1,4341.668,777,DON'T EAT                                    EAT,4341.1006,4324.9707,4240.7734,left,1,right,right,eat,eat,approach,neg,approach-neg,1,1,567.4000000003725
sub-SD,188,0,TRUE,right,avoid,neg,fungus4_crop.jpg,3,19,TRUE,187,3,4344.026,777,DON'T EAT                                    EAT,4343.119,4324.9707,4240.7734,left,3,left,left,not_eat,not_eat,approach,neg,approach-neg,1,1,907
sub-SD,189,0,FALSE,right,approach,neg,insect8_crop.jpg,3,19,TRUE,188,1,4345.497,777,DON'T EAT                                    EAT,4345.137,4324.9707,4240.7734,left,1,right,right,eat,eat,approach,neg,approach-neg,1,1,360
sub-SD,190,0,FALSE,right,approach,neg,insect34_crop.jpg,3,19,TRUE,189,1,4347.618,777,DON'T EAT                                    EAT,4347.156,4324.9707,4240.7734,left,1,right,right,eat,eat,approach,neg,approach-neg,1,1,462
sub-SD,191,0,FALSE,left,approach,neg,insect5_crop.jpg,3,20,TRUE,190,1,4366.571,777,DON'T EAT                                    EAT,4365.204,4361.184,4240.7734,left,1,right,right,eat,eat,approach,neg,approach-neg,1,1,1367
sub-SD,192,0,TRUE,left,avoid,neg,fungus29_crop.jpg,3,20,TRUE,191,3,4368.402,777,DON'T EAT                                    EAT,4367.2217,4361.184,4240.7734,left,3,left,left,not_eat,not_eat,approach,neg,approach-neg,1,1,1180.2999999998137
sub-SD,193,0,FALSE,left,approach,neg,insect30_crop.jpg,3,20,TRUE,192,1,4369.935,777,DON'T EAT                                    EAT,4369.2407,4361.184,4240.7734,left,1,right,right,eat,eat,approach,neg,approach-neg,1,1,694.2999999998137
sub-SD,194,0,FALSE,left,approach,neg,insect28_crop.jpg,3,20,TRUE,193,1,4372.0293,777,DON'T EAT                                    EAT,4371.259,4361.184,4240.7734,left,1,right,right,eat,eat,approach,neg,approach-neg,1,1,770.2999999998137
sub-SD,195,0,FALSE,left,approach,neg,insect20_crop.jpg,3,20,TRUE,194,1,4374.3345,777,DON'T EAT                                    EAT,4373.277,4361.184,4240.7734,left,1,right,right,eat,eat,approach,neg,approach-neg,1,1,1057.5
sub-SD,196,0,FALSE,left,approach,neg,insect13_crop.jpg,3,20,TRUE,195,1,4376.044,777,DON'T EAT                                    EAT,4375.2954,4361.184,4240.7734,left,1,right,right,eat,eat,approach,neg,approach-neg,1,1,748.5999999996275
sub-SD,197,0,FALSE,left,approach,neg,insect22_crop.jpg,3,20,TRUE,196,1,4378.029,777,DON'T EAT                                    EAT,4377.314,4361.184,4240.7734,left,1,right,right,eat,eat,approach,neg,approach-neg,1,1,715
sub-SD,198,0,TRUE,left,avoid,pos,meat32_crop.jpg,3,20,TRUE,197,3,4380.4717,777,DON'T EAT                                    EAT,4379.332,4361.184,4240.7734,left,3,left,left,not_eat,not_eat,approach,neg,approach-neg,1,1,1139.7000000001863
sub-SD,199,0,FALSE,left,approach,neg,insect8_crop.jpg,3,20,TRUE,198,1,4382.152,777,DON'T EAT                                    EAT,4381.3506,4361.184,4240.7734,left,1,right,right,eat,eat,approach,neg,approach-neg,1,1,801.4000000003725
sub-SD,200,0,FALSE,left,approach,neg,insect32_crop.jpg,3,20,TRUE,199,1,4383.91,777,DON'T EAT                                    EAT,4383.369,4361.184,4240.7734,left,1,right,right,eat,eat,approach,neg,approach-neg,1,1,541
sub-SD,201,2,FALSE,right,approach,neg,insect22_crop.jpg,3,21,TRUE,200,1,4404.2817,777,DON'T EAT                                    EAT,4403.1855,4399.1655,4240.7734,left,1,right,right,eat,eat,approach,neg,approach-neg,1,1,1096.199999999255
sub-SD,202,2,FALSE,right,approach,neg,insect33_crop.jpg,3,21,TRUE,201,1,4406.3555,777,DON'T EAT                                    EAT,4405.2036,4399.1655,4240.7734,left,1,right,right,eat,eat,approach,neg,approach-neg,1,1,1151.9000000003725
sub-SD,203,2,FALSE,right,approach,neg,insect12_crop.jpg,3,21,TRUE,202,1,4407.9824,777,DON'T EAT                                    EAT,4407.2217,4399.1655,4240.7734,left,1,right,right,eat,eat,approach,neg,approach-neg,1,1,760.6999999992549
sub-SD,204,2,FALSE,right,approach,neg,insect15_crop.jpg,3,21,TRUE,203,1,4409.8936,777,DON'T EAT                                    EAT,4409.2407,4399.1655,4240.7734,left,1,right,right,eat,eat,approach,neg,approach-neg,1,1,652.9000000003725
sub-SD,205,2,FALSE,right,approach,neg,insect13_crop.jpg,3,21,TRUE,204,1,4411.878,777,DON'T EAT                                    EAT,4411.259,4399.1655,4240.7734,left,1,right,right,eat,eat,approach,neg,approach-neg,1,1,619
sub-SD,206,2,TRUE,right,avoid,pos,meat4_crop.jpg,3,21,TRUE,205,3,4414.0576,777,DON'T EAT                                    EAT,4413.277,4399.1655,4240.7734,left,3,left,left,not_eat,not_eat,approach,neg,approach-neg,1,1,780.5999999996275
sub-SD,207,2,FALSE,right,approach,neg,insect39_crop.jpg,3,21,TRUE,206,1,4415.9375,777,DON'T EAT                                    EAT,4415.2954,4399.1655,4240.7734,left,1,right,right,eat,eat,approach,neg,approach-neg,1,1,642.0999999996275
sub-SD,208,2,FALSE,right,approach,neg,insect11_crop.jpg,3,21,TRUE,207,1,4417.883,777,DON'T EAT                                    EAT,4417.314,4399.1655,4240.7734,left,1,right,right,eat,eat,approach,neg,approach-neg,1,1,569
sub-SD,209,2,FALSE,right,approach,neg,insect17_crop.jpg,3,21,TRUE,208,1,4419.904,777,DON'T EAT                                    EAT,4419.332,4399.1655,4240.7734,left,1,right,right,eat,eat,approach,neg,approach-neg,1,1,572
sub-SD,210,2,TRUE,right,avoid,neg,fungus40_crop.jpg,3,21,TRUE,209,3,4422.481,777,DON'T EAT                                    EAT,4421.3506,4399.1655,4240.7734,left,3,left,left,not_eat,not_eat,approach,neg,approach-neg,1,1,1130.4000000003725
sub-SD,211,2,FALSE,right,avoid,neg,fungus26_crop.jpg,3,22,TRUE,210,3,4442.3633,777,DON'T EAT                                    EAT,4441.033,4437.013,4240.7734,left,3,left,left,not_eat,not_eat,avoid,neg,avoid-neg,1,1,1330.2999999998137
sub-SD,212,2,TRUE,right,approach,pos,cake18_crop.jpg,3,22,TRUE,211,1,4444.0137,777,DON'T EAT                                    EAT,4443.052,4437.013,4240.7734,left,1,right,right,eat,eat,avoid,neg,avoid-neg,1,1,961.7000000001863
sub-SD,213,2,FALSE,right,avoid,neg,fungus25_crop.jpg,3,22,TRUE,212,3,4446.072,777,DON'T EAT                                    EAT,4445.0703,4437.013,4240.7734,left,3,left,left,not_eat,not_eat,avoid,neg,avoid-neg,1,1,1001.6999999992549
sub-SD,214,2,FALSE,right,avoid,neg,fungus17_crop.jpg,3,22,TRUE,213,--,NA,777,DON'T EAT                                    EAT,4447.0884,4437.013,4240.7734,left,--,NA,NA,no_response,no_response,avoid,neg,avoid-neg,NA,NA,NA
sub-SD,215,2,FALSE,right,avoid,neg,fungus2_crop.jpg,3,22,TRUE,214,3,4450.435,777,DON'T EAT                                    EAT,4449.107,4437.013,4240.7734,left,3,left,left,not_eat,not_eat,avoid,neg,avoid-neg,1,1,1328
sub-SD,216,2,FALSE,right,avoid,neg,fungus1_crop.jpg,3,22,TRUE,215,3,4451.982,777,DON'T EAT                                    EAT,4451.1255,4437.013,4240.7734,left,3,left,left,not_eat,not_eat,avoid,neg,avoid-neg,1,1,856.5
sub-SD,217,2,FALSE,right,avoid,neg,fungus33_crop.jpg,3,22,TRUE,216,3,4453.985,777,DON'T EAT                                    EAT,4453.1436,4437.013,4240.7734,left,3,left,left,not_eat,not_eat,avoid,neg,avoid-neg,1,1,841.3999999994412
sub-SD,218,2,TRUE,right,approach,neg,insect35_crop.jpg,3,22,TRUE,217,1,4456.067,777,DON'T EAT                                    EAT,4455.1616,4437.013,4240.7734,left,1,right,right,eat,eat,avoid,neg,avoid-neg,1,1,905.3999999994412
sub-SD,219,2,FALSE,right,avoid,neg,fungus24_crop.jpg,3,22,TRUE,218,3,4457.97,777,DON'T EAT                                    EAT,4457.18,4437.013,4240.7734,left,3,left,left,not_eat,not_eat,avoid,neg,avoid-neg,1,1,790
sub-SD,220,2,FALSE,right,avoid,neg,fungus21_crop.jpg,3,22,TRUE,219,3,4459.927,777,DON'T EAT                                    EAT,4459.1987,4437.013,4240.7734,left,3,left,left,not_eat,not_eat,avoid,neg,avoid-neg,1,1,728.2999999998137
sub-SD,221,1,FALSE,left,avoid,pos,meat18_crop.jpg,3,23,TRUE,220,3,4478.6323,777,DON'T EAT                                    EAT,4477.5137,4473.4937,4240.7734,left,3,left,left,not_eat,not_eat,avoid,pos,avoid-pos,1,1,1118.5999999996275
sub-SD,222,1,TRUE,left,approach,neg,insect1_crop.jpg,3,23,TRUE,221,1,4480.437,777,DON'T EAT                                    EAT,4479.5317,4473.4937,4240.7734,left,1,right,right,eat,eat,avoid,pos,avoid-pos,1,1,905.3000000007451
sub-SD,223,1,FALSE,left,avoid,pos,meat11_crop.jpg,3,23,TRUE,222,3,4482.0127,777,DON'T EAT                                    EAT,4481.5503,4473.4937,4240.7734,left,3,left,left,not_eat,not_eat,avoid,pos,avoid-pos,1,1,462.40000000037253
sub-SD,224,1,FALSE,left,avoid,pos,meat35_crop.jpg,3,23,TRUE,223,3,4484.298,777,DON'T EAT                                    EAT,4483.569,4473.4937,4240.7734,left,3,left,left,not_eat,not_eat,avoid,pos,avoid-pos,1,1,729
sub-SD,225,1,FALSE,left,avoid,pos,meat1_crop.jpg,3,23,TRUE,224,3,4486.444,777,DON'T EAT                                    EAT,4485.587,4473.4937,4240.7734,left,3,left,left,not_eat,not_eat,avoid,pos,avoid-pos,1,1,857
sub-SD,226,1,FALSE,left,avoid,pos,meat30_crop.jpg,3,23,TRUE,225,3,4488.3345,777,DON'T EAT                                    EAT,4487.6055,4473.4937,4240.7734,left,3,left,left,not_eat,not_eat,avoid,pos,avoid-pos,1,1,729
sub-SD,227,1,FALSE,left,avoid,pos,meat16_crop.jpg,3,23,TRUE,226,3,4490.7383,777,DON'T EAT                                    EAT,4489.6235,4473.4937,4240.7734,left,3,left,left,not_eat,not_eat,avoid,pos,avoid-pos,1,1,1114.7999999998137
sub-SD,228,1,FALSE,left,avoid,pos,meat21_crop.jpg,3,23,TRUE,227,3,4492.612,777,DON'T EAT                                    EAT,4491.642,4473.4937,4240.7734,left,3,left,left,not_eat,not_eat,avoid,pos,avoid-pos,1,1,970
sub-SD,229,1,TRUE,left,approach,pos,cake13_crop.jpg,3,23,TRUE,228,1,4494.516,777,DON'T EAT                                    EAT,4493.66,4473.4937,4240.7734,left,1,right,right,eat,eat,avoid,pos,avoid-pos,1,1,856
sub-SD,230,1,FALSE,left,avoid,pos,meat29_crop.jpg,3,23,TRUE,229,3,4496.5664,777,DON'T EAT                                    EAT,4495.6787,4473.4937,4240.7734,left,3,left,left,not_eat,not_eat,avoid,pos,avoid-pos,1,1,887.6999999992549
sub-SD,231,1,FALSE,right,avoid,pos,meat26_crop.jpg,3,24,TRUE,230,--,NA,777,DON'T EAT                                    EAT,4513.9604,4509.9404,4240.7734,left,--,NA,NA,no_response,no_response,avoid,pos,avoid-pos,NA,NA,NA
sub-SD,232,1,FALSE,right,avoid,pos,meat11_crop.jpg,3,24,TRUE,231,3,4516.168,777,DON'T EAT                                    EAT,4515.979,4509.9404,4240.7734,left,3,left,left,not_eat,not_eat,avoid,pos,avoid-pos,1,1,189
sub-SD,233,1,TRUE,right,approach,pos,cake20_crop.jpg,3,24,TRUE,232,3,4519.0225,777,DON'T EAT                                    EAT,4517.9976,4509.9404,4240.7734,left,3,left,left,not_eat,not_eat,avoid,pos,avoid-pos,0,0,1024.9000000003725
sub-SD,234,1,TRUE,right,approach,neg,insect31_crop.jpg,3,24,TRUE,233,1,4520.881,777,DON'T EAT                                    EAT,4520.0156,4509.9404,4240.7734,left,1,right,right,eat,eat,avoid,pos,avoid-pos,1,1,865.4000000003725
sub-SD,235,1,FALSE,right,avoid,pos,meat1_crop.jpg,3,24,TRUE,234,3,4523.328,777,DON'T EAT                                    EAT,4522.034,4509.9404,4240.7734,left,3,left,left,not_eat,not_eat,avoid,pos,avoid-pos,1,1,1294
sub-SD,236,1,FALSE,right,avoid,pos,meat10_crop.jpg,3,24,TRUE,235,3,4525.7593,777,DON'T EAT                                    EAT,4524.0522,4509.9404,4240.7734,left,3,left,left,not_eat,not_eat,avoid,pos,avoid-pos,1,1,1707.0999999996275
sub-SD,237,1,FALSE,right,avoid,pos,meat7_crop.jpg,3,24,TRUE,236,3,4527.2324,777,DON'T EAT                                    EAT,4526.071,4509.9404,4240.7734,left,3,left,left,not_eat,not_eat,avoid,pos,avoid-pos,1,1,1161.3999999994412
sub-SD,238,1,FALSE,right,avoid,pos,meat39_crop.jpg,3,24,TRUE,237,3,4528.9673,777,DON'T EAT                                    EAT,4528.0894,4509.9404,4240.7734,left,3,left,left,not_eat,not_eat,avoid,pos,avoid-pos,1,1,877.9000000003725
sub-SD,239,1,FALSE,right,avoid,pos,meat13_crop.jpg,3,24,TRUE,238,3,4531.238,777,DON'T EAT                                    EAT,4530.1074,4509.9404,4240.7734,left,3,left,left,not_eat,not_eat,avoid,pos,avoid-pos,1,1,1130.6000000005588
sub-SD,240,1,FALSE,right,avoid,pos,meat33_crop.jpg,3,24,TRUE,239,3,4533.6357,777,DON'T EAT                                    EAT,4532.126,4509.9404,4240.7734,left,3,left,left,not_eat,not_eat,avoid,pos,avoid-pos,1,1,1509.7000000001863
sub-SD,241,2,FALSE,right,avoid,pos,meat32_crop.jpg,4,25,TRUE,240,3,4683.4727,777,DON'T EAT                                    EAT,4682.2505,4678.2305,4667.5444,right,3,left,left,not_eat,not_eat,avoid,pos,avoid-pos,1,1,1222.2000000001863
sub-SD,242,2,FALSE,right,avoid,pos,meat29_crop.jpg,4,25,TRUE,241,3,4685.103,777,DON'T EAT                                    EAT,4684.2686,4678.2305,4667.5444,right,3,left,left,not_eat,not_eat,avoid,pos,avoid-pos,1,1,834.3999999994412
sub-SD,243,2,TRUE,right,approach,neg,insect10_crop.jpg,4,25,TRUE,242,1,4687.2905,777,DON'T EAT                                    EAT,4686.2866,4678.2305,4667.5444,right,1,right,right,eat,eat,avoid,pos,avoid-pos,1,1,1003.8999999994412
sub-SD,244,2,FALSE,right,avoid,pos,meat24_crop.jpg,4,25,TRUE,243,3,4689.118,777,DON'T EAT                                    EAT,4688.305,4678.2305,4667.5444,right,3,left,left,not_eat,not_eat,avoid,pos,avoid-pos,1,1,813
sub-SD,245,2,FALSE,right,avoid,pos,meat3_crop.jpg,4,25,TRUE,244,3,4691.1543,777,DON'T EAT                                    EAT,4690.3237,4678.2305,4667.5444,right,3,left,left,not_eat,not_eat,avoid,pos,avoid-pos,1,1,830.5999999996275
sub-SD,246,2,FALSE,right,avoid,pos,meat19_crop.jpg,4,25,TRUE,245,3,4692.9526,777,DON'T EAT                                    EAT,4692.342,4678.2305,4667.5444,right,3,left,left,not_eat,not_eat,avoid,pos,avoid-pos,1,1,610.5999999996275
sub-SD,247,2,FALSE,right,avoid,pos,meat37_crop.jpg,4,25,TRUE,246,3,4695.082,777,DON'T EAT                                    EAT,4694.3604,4678.2305,4667.5444,right,3,left,left,not_eat,not_eat,avoid,pos,avoid-pos,1,1,721.6000000005588
sub-SD,248,2,FALSE,right,avoid,pos,meat17_crop.jpg,4,25,TRUE,247,3,4697.4653,777,DON'T EAT                                    EAT,4696.379,4678.2305,4667.5444,right,3,left,left,not_eat,not_eat,avoid,pos,avoid-pos,1,1,1086.2999999998137
sub-SD,249,2,FALSE,right,avoid,pos,meat12_crop.jpg,4,25,TRUE,248,3,4699.3564,777,DON'T EAT                                    EAT,4698.397,4678.2305,4667.5444,right,3,left,left,not_eat,not_eat,avoid,pos,avoid-pos,1,1,959.3999999994412
sub-SD,250,2,TRUE,right,approach,pos,cake2_crop.jpg,4,25,TRUE,249,1,4701.2827,777,DON'T EAT                                    EAT,4700.4155,4678.2305,4667.5444,right,1,right,right,eat,eat,avoid,pos,avoid-pos,1,1,867.2000000001863
sub-SD,251,3,FALSE,right,approach,neg,insect38_crop.jpg,4,26,TRUE,250,1,4718.754,777,DON'T EAT                                    EAT,4717.563,4713.543,4667.5444,right,1,right,right,eat,eat,approach,neg,approach-neg,1,1,1191
sub-SD,252,3,FALSE,right,approach,neg,insect20_crop.jpg,4,26,TRUE,251,1,4720.5728,777,DON'T EAT                                    EAT,4719.5815,4713.543,4667.5444,right,1,right,right,eat,eat,approach,neg,approach-neg,1,1,991.2999999998137
sub-SD,253,3,FALSE,right,approach,neg,insect18_crop.jpg,4,26,TRUE,252,1,4722.327,777,DON'T EAT                                    EAT,4721.5996,4713.543,4667.5444,right,1,right,right,eat,eat,approach,neg,approach-neg,1,1,727.4000000003725
sub-SD,254,3,FALSE,right,approach,neg,insect7_crop.jpg,4,26,TRUE,253,1,4724.224,777,DON'T EAT                                    EAT,4723.618,4713.543,4667.5444,right,1,right,right,eat,eat,approach,neg,approach-neg,1,1,606
sub-SD,255,3,FALSE,right,approach,neg,insect27_crop.jpg,4,26,TRUE,254,1,4726.282,777,DON'T EAT                                    EAT,4725.636,4713.543,4667.5444,right,1,right,right,eat,eat,approach,neg,approach-neg,1,1,646
sub-SD,256,3,TRUE,right,avoid,neg,fungus16_crop.jpg,4,26,TRUE,255,3,4728.417,777,DON'T EAT                                    EAT,4727.655,4713.543,4667.5444,right,3,left,left,not_eat,not_eat,approach,neg,approach-neg,1,1,762
sub-SD,257,3,TRUE,right,avoid,pos,meat28_crop.jpg,4,26,TRUE,256,3,4730.955,777,DON'T EAT                                    EAT,4729.673,4713.543,4667.5444,right,3,left,left,not_eat,not_eat,approach,neg,approach-neg,1,1,1282
sub-SD,258,3,FALSE,right,approach,neg,insect26_crop.jpg,4,26,TRUE,257,1,4732.3774,777,DON'T EAT                                    EAT,4731.6914,4713.543,4667.5444,right,1,right,right,eat,eat,approach,neg,approach-neg,1,1,686.0000000009313
sub-SD,259,3,FALSE,right,approach,neg,insect9_crop.jpg,4,26,TRUE,258,1,4734.9116,777,DON'T EAT                                    EAT,4733.71,4713.543,4667.5444,right,1,right,right,eat,eat,approach,neg,approach-neg,1,1,1201.6000000005588
sub-SD,260,3,FALSE,right,approach,neg,insect4_crop.jpg,4,26,TRUE,259,1,4736.501,777,DON'T EAT                                    EAT,4735.728,4713.543,4667.5444,right,1,right,right,eat,eat,approach,neg,approach-neg,1,1,773
sub-SD,261,3,FALSE,right,avoid,pos,meat2_crop.jpg,4,27,TRUE,260,3,4756.471,777,DON'T EAT                                    EAT,4755.3276,4751.3076,4667.5444,right,3,left,left,not_eat,not_eat,avoid,pos,avoid-pos,1,1,1143.4000000003725
sub-SD,262,3,FALSE,right,avoid,pos,meat18_crop.jpg,4,27,TRUE,261,3,4758.1714,777,DON'T EAT                                    EAT,4757.346,4751.3076,4667.5444,right,3,left,left,not_eat,not_eat,avoid,pos,avoid-pos,1,1,825.4000000003725
sub-SD,263,3,FALSE,right,avoid,pos,meat8_crop.jpg,4,27,TRUE,262,3,4760.1665,777,DON'T EAT                                    EAT,4759.3643,4751.3076,4667.5444,right,3,left,left,not_eat,not_eat,avoid,pos,avoid-pos,1,1,802.2000000001863
sub-SD,264,3,TRUE,right,approach,neg,insect5_crop.jpg,4,27,TRUE,263,1,4762.331,777,DON'T EAT                                    EAT,4761.383,4751.3076,4667.5444,right,1,right,right,eat,eat,avoid,pos,avoid-pos,1,1,948
sub-SD,265,3,FALSE,right,avoid,pos,meat31_crop.jpg,4,27,TRUE,264,3,4764.053,777,DON'T EAT                                    EAT,4763.401,4751.3076,4667.5444,right,3,left,left,not_eat,not_eat,avoid,pos,avoid-pos,1,1,652
sub-SD,266,3,FALSE,right,avoid,pos,meat30_crop.jpg,4,27,TRUE,265,3,4766.1377,777,DON'T EAT                                    EAT,4765.4194,4751.3076,4667.5444,right,3,left,left,not_eat,not_eat,avoid,pos,avoid-pos,1,1,718.3000000007451
sub-SD,267,3,FALSE,right,avoid,pos,meat20_crop.jpg,4,27,TRUE,266,3,4768.083,777,DON'T EAT                                    EAT,4767.438,4751.3076,4667.5444,right,3,left,left,not_eat,not_eat,avoid,pos,avoid-pos,1,1,645
sub-SD,268,3,FALSE,right,avoid,pos,meat25_crop.jpg,4,27,TRUE,267,3,4771.3374,777,DON'T EAT                                    EAT,4769.456,4751.3076,4667.5444,right,3,left,left,not_eat,not_eat,avoid,pos,avoid-pos,1,1,1881.4000000003725
sub-SD,269,3,TRUE,right,approach,pos,cake11_crop.jpg,4,27,TRUE,268,1,4772.426,777,DON'T EAT                                    EAT,4771.4746,4751.3076,4667.5444,right,1,right,right,eat,eat,avoid,pos,avoid-pos,1,1,951.4000000003725
sub-SD,270,3,FALSE,right,avoid,pos,meat16_crop.jpg,4,27,TRUE,269,3,4774.0747,777,DON'T EAT                                    EAT,4773.4927,4751.3076,4667.5444,right,3,left,left,not_eat,not_eat,avoid,pos,avoid-pos,1,1,582
sub-SD,271,0,TRUE,right,avoid,neg,fungus31_crop.jpg,4,28,TRUE,270,3,4791.2407,777,DON'T EAT                                    EAT,4789.722,4785.7026,4667.5444,right,3,left,left,not_eat,not_eat,approach,pos,approach-pos,1,1,1518.7000000001863
sub-SD,272,0,FALSE,right,approach,pos,cake32_crop.jpg,4,28,TRUE,271,1,4792.714,777,DON'T EAT                                    EAT,4791.741,4785.7026,4667.5444,right,1,right,right,eat,eat,approach,pos,approach-pos,1,1,973
sub-SD,273,0,TRUE,right,avoid,pos,meat38_crop.jpg,4,28,TRUE,272,3,4794.6396,777,DON'T EAT                                    EAT,4793.76,4785.7026,4667.5444,right,3,left,left,not_eat,not_eat,approach,pos,approach-pos,1,1,879.6000000005588
sub-SD,274,0,FALSE,right,approach,pos,cake16_crop.jpg,4,28,TRUE,273,1,4796.5815,777,DON'T EAT                                    EAT,4795.778,4785.7026,4667.5444,right,1,right,right,eat,eat,approach,pos,approach-pos,1,1,803.5
sub-SD,275,0,FALSE,right,approach,pos,cake23_crop.jpg,4,28,TRUE,274,1,4798.114,777,DON'T EAT                                    EAT,4797.7964,4785.7026,4667.5444,right,1,right,right,eat,eat,approach,pos,approach-pos,1,1,317.59999999962747
sub-SD,276,0,FALSE,right,approach,pos,cake39_crop.jpg,4,28,TRUE,275,1,4800.111,777,DON'T EAT                                    EAT,4799.8145,4785.7026,4667.5444,right,1,right,right,eat,eat,approach,pos,approach-pos,1,1,296.5
sub-SD,277,0,FALSE,right,approach,pos,cake30_crop.jpg,4,28,TRUE,276,1,4802.1396,777,DON'T EAT                                    EAT,4801.833,4785.7026,4667.5444,right,1,right,right,eat,eat,approach,pos,approach-pos,1,1,306.6000000005588
sub-SD,278,0,FALSE,right,approach,pos,cake13_crop.jpg,4,28,TRUE,277,1,4804.2954,777,DON'T EAT                                    EAT,4803.8516,4785.7026,4667.5444,right,1,right,right,eat,eat,approach,pos,approach-pos,1,1,443.80000000074506
sub-SD,279,0,FALSE,right,approach,pos,cake34_crop.jpg,4,28,TRUE,278,1,4806.2817,777,DON'T EAT                                    EAT,4805.8696,4785.7026,4667.5444,right,1,right,right,eat,eat,approach,pos,approach-pos,1,1,412.09999999962747
sub-SD,280,0,FALSE,right,approach,pos,cake1_crop.jpg,4,28,TRUE,279,1,4808.3735,777,DON'T EAT                                    EAT,4807.888,4785.7026,4667.5444,right,1,right,right,eat,eat,approach,pos,approach-pos,1,1,485.5
sub-SD,281,2,FALSE,left,approach,pos,cake40_crop.jpg,4,29,TRUE,280,1,4828.7656,777,DON'T EAT                                    EAT,4827.721,4823.7007,4667.5444,right,1,right,right,eat,eat,approach,pos,approach-pos,1,1,1044.5999999996275
sub-SD,282,2,FALSE,left,approach,pos,cake17_crop.jpg,4,29,TRUE,281,1,4830.4653,777,DON'T EAT                                    EAT,4829.7397,4823.7007,4667.5444,right,1,right,right,eat,eat,approach,pos,approach-pos,1,1,725.5999999996275
sub-SD,283,2,FALSE,left,approach,pos,cake15_crop.jpg,4,29,TRUE,282,1,4832.4336,777,DON'T EAT                                    EAT,4831.758,4823.7007,4667.5444,right,1,right,right,eat,eat,approach,pos,approach-pos,1,1,675.6000000005588
sub-SD,284,2,FALSE,left,approach,pos,cake33_crop.jpg,4,29,TRUE,283,1,4834.6646,777,DON'T EAT                                    EAT,4833.776,4823.7007,4667.5444,right,1,right,right,eat,eat,approach,pos,approach-pos,1,1,888.5999999996275
sub-SD,285,2,FALSE,left,approach,pos,cake4_crop.jpg,4,29,TRUE,284,1,4836.547,777,DON'T EAT                                    EAT,4835.7944,4823.7007,4667.5444,right,1,right,right,eat,eat,approach,pos,approach-pos,1,1,752.6000000005588
sub-SD,286,2,FALSE,left,approach,pos,cake18_crop.jpg,4,29,TRUE,285,1,4839.067,777,DON'T EAT                                    EAT,4837.8125,4823.7007,4667.5444,right,1,right,right,eat,eat,approach,pos,approach-pos,1,1,1254.5
sub-SD,287,2,TRUE,left,avoid,neg,fungus20_crop.jpg,4,29,TRUE,286,3,4840.6436,777,DON'T EAT                                    EAT,4839.831,4823.7007,4667.5444,right,3,left,left,not_eat,not_eat,approach,pos,approach-pos,1,1,812.6000000005588
sub-SD,288,2,FALSE,left,approach,pos,cake25_crop.jpg,4,29,TRUE,287,1,4842.4404,777,DON'T EAT                                    EAT,4841.8496,4823.7007,4667.5444,right,1,right,right,eat,eat,approach,pos,approach-pos,1,1,590.8000000007451
sub-SD,289,2,TRUE,left,avoid,pos,meat14_crop.jpg,4,29,TRUE,288,3,4844.7935,777,DON'T EAT                                    EAT,4843.8677,4823.7007,4667.5444,right,3,left,left,not_eat,not_eat,approach,pos,approach-pos,1,1,925.7999999998137
sub-SD,290,2,FALSE,left,approach,pos,cake38_crop.jpg,4,29,TRUE,289,1,4846.4346,777,DON'T EAT                                    EAT,4845.886,4823.7007,4667.5444,right,1,right,right,eat,eat,approach,pos,approach-pos,1,1,548.5999999996275
sub-SD,291,1,TRUE,right,approach,pos,cake17_crop.jpg,4,30,TRUE,290,1,4866.889,777,DON'T EAT                                    EAT,4865.9194,4861.8994,4667.5444,right,1,right,right,eat,eat,avoid,neg,avoid-neg,1,1,969.6000000005588
sub-SD,292,1,FALSE,right,avoid,neg,fungus28_crop.jpg,4,30,TRUE,291,3,4868.89,777,DON'T EAT                                    EAT,4867.938,4861.8994,4667.5444,right,3,left,left,not_eat,not_eat,avoid,neg,avoid-neg,1,1,952
sub-SD,293,1,FALSE,right,avoid,neg,fungus19_crop.jpg,4,30,TRUE,292,3,4870.792,777,DON'T EAT                                    EAT,4869.956,4861.8994,4667.5444,right,3,left,left,not_eat,not_eat,avoid,neg,avoid-neg,1,1,836
sub-SD,294,1,FALSE,right,avoid,neg,fungus12_crop.jpg,4,30,TRUE,293,3,4872.642,777,DON'T EAT                                    EAT,4871.9746,4861.8994,4667.5444,right,3,left,left,not_eat,not_eat,avoid,neg,avoid-neg,1,1,667.4000000003725
sub-SD,295,1,TRUE,right,approach,neg,insect36_crop.jpg,4,30,TRUE,294,--,NA,777,DON'T EAT                                    EAT,4873.9927,4861.8994,4667.5444,right,--,NA,NA,no_response,no_response,avoid,neg,avoid-neg,NA,NA,NA
sub-SD,296,1,FALSE,right,avoid,neg,fungus30_crop.jpg,4,30,TRUE,295,3,4876.053,777,DON'T EAT                                    EAT,4876.011,4861.8994,4667.5444,right,3,left,left,not_eat,not_eat,avoid,neg,avoid-neg,1,1,42
sub-SD,297,1,FALSE,right,avoid,neg,fungus36_crop.jpg,4,30,TRUE,296,3,4878.6636,777,DON'T EAT                                    EAT,4878.03,4861.8994,4667.5444,right,3,left,left,not_eat,not_eat,avoid,neg,avoid-neg,1,1,633.5999999996275
sub-SD,298,1,FALSE,right,avoid,neg,fungus8_crop.jpg,4,30,TRUE,297,3,4880.7954,777,DON'T EAT                                    EAT,4880.048,4861.8994,4667.5444,right,3,left,left,not_eat,not_eat,avoid,neg,avoid-neg,1,1,747.4000000003725
sub-SD,299,1,FALSE,right,avoid,neg,fungus34_crop.jpg,4,30,TRUE,298,3,4882.7935,777,DON'T EAT                                    EAT,4882.0664,4861.8994,4667.5444,right,3,left,left,not_eat,not_eat,avoid,neg,avoid-neg,1,1,727.1000000005588
sub-SD,300,1,FALSE,right,avoid,neg,fungus9_crop.jpg,4,30,TRUE,299,3,4884.7793,777,DON'T EAT                                    EAT,4884.0845,4861.8994,4667.5444,right,3,left,left,not_eat,not_eat,avoid,neg,avoid-neg,1,1,694.7999999998137
sub-SD,301,3,FALSE,left,avoid,neg,fungus27_crop.jpg,4,31,TRUE,300,3,4904.9966,777,DON'T EAT                                    EAT,4904.051,4900.031,4667.5444,right,3,left,left,not_eat,not_eat,avoid,neg,avoid-neg,1,1,945.6000000005588
sub-SD,302,3,FALSE,left,avoid,neg,fungus6_crop.jpg,4,31,TRUE,301,3,4906.7036,777,DON'T EAT                                    EAT,4906.0693,4900.031,4667.5444,right,3,left,left,not_eat,not_eat,avoid,neg,avoid-neg,1,1,634.2999999998137
sub-SD,303,3,FALSE,left,avoid,neg,fungus5_crop.jpg,4,31,TRUE,302,3,4908.8594,777,DON'T EAT                                    EAT,4908.088,4900.031,4667.5444,right,3,left,left,not_eat,not_eat,avoid,neg,avoid-neg,1,1,771.4000000003725
sub-SD,304,3,FALSE,left,avoid,neg,fungus34_crop.jpg,4,31,TRUE,303,3,4910.7524,777,DON'T EAT                                    EAT,4910.106,4900.031,4667.5444,right,3,left,left,not_eat,not_eat,avoid,neg,avoid-neg,1,1,646.4000000003725
sub-SD,305,3,FALSE,left,avoid,neg,fungus8_crop.jpg,4,31,TRUE,304,3,4912.9253,777,DON'T EAT                                    EAT,4912.1245,4900.031,4667.5444,right,3,left,left,not_eat,not_eat,avoid,neg,avoid-neg,1,1,800.7999999998137
sub-SD,306,3,TRUE,left,approach,neg,insect19_crop.jpg,4,31,TRUE,305,1,4915.0195,777,DON'T EAT                                    EAT,4914.143,4900.031,4667.5444,right,1,right,right,eat,eat,avoid,neg,avoid-neg,1,1,876.5
sub-SD,307,3,FALSE,left,avoid,neg,fungus19_crop.jpg,4,31,TRUE,306,3,4916.9976,777,DON'T EAT                                    EAT,4916.161,4900.031,4667.5444,right,3,left,left,not_eat,not_eat,avoid,neg,avoid-neg,1,1,836.5999999996275
sub-SD,308,3,FALSE,left,avoid,neg,fungus17_crop.jpg,4,31,TRUE,307,3,4919.3574,777,DON'T EAT                                    EAT,4918.1797,4900.031,4667.5444,right,3,left,left,not_eat,not_eat,avoid,neg,avoid-neg,1,1,1177.7000000001863
sub-SD,309,3,TRUE,left,approach,pos,cake10_crop.jpg,4,31,TRUE,308,1,4920.834,777,DON'T EAT                                    EAT,4920.1978,4900.031,4667.5444,right,1,right,right,eat,eat,avoid,neg,avoid-neg,1,1,636.2000000001863
sub-SD,310,3,FALSE,left,avoid,neg,fungus21_crop.jpg,4,31,TRUE,309,3,4923.0083,777,DON'T EAT                                    EAT,4922.2163,4900.031,4667.5444,right,3,left,left,not_eat,not_eat,avoid,neg,avoid-neg,1,1,792.0000000009313
sub-SD,311,3,FALSE,right,avoid,neg,fungus38_crop.jpg,4,32,TRUE,310,3,4941.9556,777,DON'T EAT                                    EAT,4940.4146,4936.3945,4667.5444,right,3,left,left,not_eat,not_eat,avoid,neg,avoid-neg,1,1,1541.0000000009313
sub-SD,312,3,FALSE,right,avoid,neg,fungus18_crop.jpg,4,32,TRUE,311,3,4943.3096,777,DON'T EAT                                    EAT,4942.433,4936.3945,4667.5444,right,3,left,left,not_eat,not_eat,avoid,neg,avoid-neg,1,1,876.5999999996275
sub-SD,313,3,FALSE,right,avoid,neg,fungus14_crop.jpg,4,32,TRUE,312,3,4945.1895,777,DON'T EAT                                    EAT,4944.451,4936.3945,4667.5444,right,3,left,left,not_eat,not_eat,avoid,neg,avoid-neg,1,1,738.5
sub-SD,314,3,FALSE,right,avoid,neg,fungus10_crop.jpg,4,32,TRUE,313,3,4947.1553,777,DON'T EAT                                    EAT,4946.4697,4936.3945,4667.5444,right,3,left,left,not_eat,not_eat,avoid,neg,avoid-neg,1,1,685.6000000014901
sub-SD,315,3,TRUE,right,approach,pos,cake26_crop.jpg,4,32,TRUE,314,1,4949.348,777,DON'T EAT                                    EAT,4948.488,4936.3945,4667.5444,right,1,right,right,eat,eat,avoid,neg,avoid-neg,1,1,860
sub-SD,316,3,FALSE,right,avoid,neg,fungus6_crop.jpg,4,32,TRUE,315,3,4951.117,777,DON'T EAT                                    EAT,4950.5063,4936.3945,4667.5444,right,3,left,left,not_eat,not_eat,avoid,neg,avoid-neg,1,1,610.7000000001863
sub-SD,317,3,FALSE,right,avoid,neg,fungus13_crop.jpg,4,32,TRUE,316,3,4953.2124,777,DON'T EAT                                    EAT,4952.525,4936.3945,4667.5444,right,3,left,left,not_eat,not_eat,avoid,neg,avoid-neg,1,1,687.4000000003725
sub-SD,318,3,FALSE,right,avoid,neg,fungus3_crop.jpg,4,32,TRUE,317,3,4955.4946,777,DON'T EAT                                    EAT,4954.543,4936.3945,4667.5444,right,3,left,left,not_eat,not_eat,avoid,neg,avoid-neg,1,1,951.5999999996275
sub-SD,319,3,TRUE,right,approach,neg,insect24_crop.jpg,4,32,TRUE,318,1,4957.5244,777,DON'T EAT                                    EAT,4956.5615,4936.3945,4667.5444,right,1,right,right,eat,eat,avoid,neg,avoid-neg,1,1,962.9000000003725
sub-SD,320,3,FALSE,right,avoid,neg,fungus29_crop.jpg,4,32,TRUE,319,3,4959.468,777,DON'T EAT                                    EAT,4958.5796,4936.3945,4667.5444,right,3,left,left,not_eat,not_eat,avoid,neg,avoid-neg,1,1,888.4000000003725
