TrialNumber,n_block,catch,hand,mot,val,stim_name,run_number,num_block,ran,order,response,RT,Subject number,n_b,left_side_resp_label,trial_onset,blk_instr_onset,baseline_onset
1,0,True,right,approach,pos,cake29_crop.jpg,1,1,1.0,0.0,1,1424.504,103.0,1.0,DON'T EAT                                    EAT,1422.9138,1418.8939,1404.9093
2,0,False,right,avoid,pos,meat5_crop.jpg,1,1,1.0,1.0,1,1426.095,103.0,1.0,DON'T EAT                                    EAT,1424.9321,1418.8939,1404.9093
3,0,False,right,avoid,pos,meat14_crop.jpg,1,1,1.0,2.0,--,--,103.0,1.0,DON'T EAT                                    EAT,1426.9504,1418.8939,1404.9093
4,0,False,right,avoid,pos,meat34_crop.jpg,1,1,1.0,3.0,1,1429.6952,103.0,1.0,DON'T EAT                                    EAT,1428.9717,1418.8939,1404.9093
5,0,False,right,avoid,pos,meat17_crop.jpg,1,1,1.0,4.0,1,1431.8557,103.0,1.0,DON'T EAT                                    EAT,1430.9891,1418.8939,1404.9093
6,0,True,right,approach,neg,insect38_crop.jpg,1,1,1.0,5.0,2,1433.9163,103.0,1.0,DON'T EAT                                    EAT,1433.0055,1418.8939,1404.9093
7,0,False,right,avoid,pos,meat4_crop.jpg,1,1,1.0,6.0,1,1436.2855,103.0,1.0,DON'T EAT                                    EAT,1435.0238,1418.8939,1404.9093
8,0,False,right,avoid,pos,meat33_crop.jpg,1,1,1.0,7.0,1,1438.611,103.0,1.0,DON'T EAT                                    EAT,1437.0422,1418.8939,1404.9093
9,0,False,right,avoid,pos,meat15_crop.jpg,1,1,1.0,8.0,1,1440.333,103.0,1.0,DON'T EAT                                    EAT,1439.0605,1418.8939,1404.9093
10,0,False,right,avoid,pos,meat22_crop.jpg,1,1,1.0,9.0,1,1442.0107,103.0,1.0,DON'T EAT                                    EAT,1441.0789,1418.8939,1404.9093
11,0,False,right,approach,pos,cake36_crop.jpg,1,2,1.0,10.0,--,--,103.0,2.0,DON'T EAT                                    EAT,1458.3431,1454.3232,1404.9093
12,0,False,right,approach,pos,cake4_crop.jpg,1,2,1.0,11.0,2,1460.6241,103.0,2.0,DON'T EAT                                    EAT,1460.3615,1454.3232,1404.9093
13,0,False,right,approach,pos,cake12_crop.jpg,1,2,1.0,12.0,2,1463.3453,103.0,2.0,DON'T EAT                                    EAT,1462.3799,1454.3232,1404.9093
14,0,False,right,approach,pos,cake26_crop.jpg,1,2,1.0,13.0,2,1465.177,103.0,2.0,DON'T EAT                                    EAT,1464.3982,1454.3232,1404.9093
15,0,False,right,approach,pos,cake31_crop.jpg,1,2,1.0,14.0,2,1466.9873,103.0,2.0,DON'T EAT                                    EAT,1466.4166,1454.3232,1404.9093
16,0,False,right,approach,pos,cake8_crop.jpg,1,2,1.0,15.0,2,1469.0496,103.0,2.0,DON'T EAT                                    EAT,1468.4349,1454.3232,1404.9093
17,0,True,right,avoid,neg,fungus14_crop.jpg,1,2,1.0,16.0,1,1471.4298,103.0,2.0,DON'T EAT                                    EAT,1470.4532,1454.3232,1404.9093
18,0,False,right,approach,pos,cake10_crop.jpg,1,2,1.0,17.0,2,1473.404,103.0,2.0,DON'T EAT                                    EAT,1472.4716,1454.3232,1404.9093
19,0,True,right,avoid,pos,meat7_crop.jpg,1,2,1.0,18.0,1,1475.9819,103.0,2.0,DON'T EAT                                    EAT,1474.49,1454.3232,1404.9093
20,0,False,right,approach,pos,cake21_crop.jpg,1,2,1.0,19.0,2,1477.5504,103.0,2.0,DON'T EAT                                    EAT,1476.5083,1454.3232,1404.9093
21,1,False,left,avoid,neg,fungus7_crop.jpg,1,3,1.0,20.0,1,1497.0236,103.0,3.0,DON'T EAT                                    EAT,1495.6742,1491.6709,1404.9093
22,1,False,left,avoid,neg,fungus25_crop.jpg,1,3,1.0,21.0,1,1498.5155,103.0,3.0,DON'T EAT                                    EAT,1497.6925,1491.6709,1404.9093
23,1,False,left,avoid,neg,fungus32_crop.jpg,1,3,1.0,22.0,1,1500.7091,103.0,3.0,DON'T EAT                                    EAT,1499.7108,1491.6709,1404.9093
24,1,True,left,approach,pos,cake17_crop.jpg,1,3,1.0,23.0,2,1502.6072,103.0,3.0,DON'T EAT                                    EAT,1501.7292,1491.6709,1404.9093
25,1,False,left,avoid,neg,fungus28_crop.jpg,1,3,1.0,24.0,1,1504.6245,103.0,3.0,DON'T EAT                                    EAT,1503.7476,1491.6709,1404.9093
26,1,False,left,avoid,neg,fungus19_crop.jpg,1,3,1.0,25.0,1,1506.5991,103.0,3.0,DON'T EAT                                    EAT,1505.7659,1491.6709,1404.9093
27,1,False,left,avoid,neg,fungus34_crop.jpg,1,3,1.0,26.0,1,1508.563,103.0,3.0,DON'T EAT                                    EAT,1507.7843,1491.6709,1404.9093
28,1,False,left,avoid,neg,fungus26_crop.jpg,1,3,1.0,27.0,1,1510.6255,103.0,3.0,DON'T EAT                                    EAT,1509.8026,1491.6709,1404.9093
29,1,False,left,avoid,neg,fungus29_crop.jpg,1,3,1.0,28.0,1,1512.5334,103.0,3.0,DON'T EAT                                    EAT,1511.8209,1491.6709,1404.9093
30,1,True,left,approach,neg,insect37_crop.jpg,1,3,1.0,29.0,2,1515.068,103.0,3.0,DON'T EAT                                    EAT,1513.8394,1491.6709,1404.9093
31,2,False,right,avoid,neg,fungus16_crop.jpg,1,4,1.0,30.0,1,1532.9198,103.0,4.0,DON'T EAT                                    EAT,1531.1538,1527.1503,1404.9093
32,2,True,right,approach,pos,cake34_crop.jpg,1,4,1.0,31.0,2,1534.324,103.0,4.0,DON'T EAT                                    EAT,1533.172,1527.1503,1404.9093
33,2,False,right,avoid,neg,fungus19_crop.jpg,1,4,1.0,32.0,1,1536.0344,103.0,4.0,DON'T EAT                                    EAT,1535.1903,1527.1503,1404.9093
34,2,False,right,avoid,neg,fungus27_crop.jpg,1,4,1.0,33.0,1,1538.2509,103.0,4.0,DON'T EAT                                    EAT,1537.2086,1527.1503,1404.9093
35,2,False,right,avoid,neg,fungus35_crop.jpg,1,4,1.0,34.0,1,1540.1708,103.0,4.0,DON'T EAT                                    EAT,1539.2269,1527.1503,1404.9093
36,2,True,right,approach,neg,insect29_crop.jpg,1,4,1.0,35.0,2,1542.2877,103.0,4.0,DON'T EAT                                    EAT,1541.2454,1527.1503,1404.9093
37,2,False,right,avoid,neg,fungus2_crop.jpg,1,4,1.0,36.0,1,1544.2833,103.0,4.0,DON'T EAT                                    EAT,1543.2637,1527.1503,1404.9093
38,2,False,right,avoid,neg,fungus36_crop.jpg,1,4,1.0,37.0,1,1547.1305,103.0,4.0,DON'T EAT                                    EAT,1545.2821,1527.1503,1404.9093
39,2,False,right,avoid,neg,fungus25_crop.jpg,1,4,1.0,38.0,1,1548.2129,103.0,4.0,DON'T EAT                                    EAT,1547.3003,1527.1503,1404.9093
40,2,False,right,avoid,neg,fungus11_crop.jpg,1,4,1.0,39.0,1,1550.7448,103.0,4.0,DON'T EAT                                    EAT,1549.3187,1527.1503,1404.9093
41,3,False,right,avoid,pos,meat21_crop.jpg,1,5,1.0,40.0,1,1567.5269,103.0,5.0,DON'T EAT                                    EAT,1565.8158,1561.7958,1404.9093
42,3,True,right,approach,neg,insect4_crop.jpg,1,5,1.0,41.0,2,1568.8765,103.0,5.0,DON'T EAT                                    EAT,1567.8341,1561.7958,1404.9093
43,3,False,right,avoid,pos,meat38_crop.jpg,1,5,1.0,42.0,1,1570.6536,103.0,5.0,DON'T EAT                                    EAT,1569.8524,1561.7958,1404.9093
44,3,False,right,avoid,pos,meat27_crop.jpg,1,5,1.0,43.0,1,1573.0228,103.0,5.0,DON'T EAT                                    EAT,1571.8707,1561.7958,1404.9093
45,3,False,right,avoid,pos,meat12_crop.jpg,1,5,1.0,44.0,1,1574.8107,103.0,5.0,DON'T EAT                                    EAT,1573.8892,1561.7958,1404.9093
46,3,False,right,avoid,pos,meat11_crop.jpg,1,5,1.0,45.0,1,1576.7413,103.0,5.0,DON'T EAT                                    EAT,1575.9075,1561.7958,1404.9093
47,3,False,right,avoid,pos,meat37_crop.jpg,1,5,1.0,46.0,1,1578.5511,103.0,5.0,DON'T EAT                                    EAT,1577.9258,1561.7958,1404.9093
48,3,True,right,approach,pos,cake9_crop.jpg,1,5,1.0,47.0,2,1580.8876,103.0,5.0,DON'T EAT                                    EAT,1579.9442,1561.7958,1404.9093
49,3,False,right,avoid,pos,meat31_crop.jpg,1,5,1.0,48.0,1,1582.6427,103.0,5.0,DON'T EAT                                    EAT,1581.9625,1561.7958,1404.9093
50,3,False,right,avoid,pos,meat10_crop.jpg,1,5,1.0,49.0,1,1584.7262,103.0,5.0,DON'T EAT                                    EAT,1583.9808,1561.7958,1404.9093
51,1,False,right,approach,pos,cake39_crop.jpg,1,6,1.0,50.0,2,1601.3435,103.0,6.0,DON'T EAT                                    EAT,1600.3778,1596.3578,1404.9093
52,1,False,right,approach,pos,cake27_crop.jpg,1,6,1.0,51.0,2,1603.6244,103.0,6.0,DON'T EAT                                    EAT,1602.3961,1596.3578,1404.9093
53,1,False,right,approach,pos,cake7_crop.jpg,1,6,1.0,52.0,2,1605.4341,103.0,6.0,DON'T EAT                                    EAT,1604.4144,1596.3578,1404.9093
54,1,False,right,approach,pos,cake11_crop.jpg,1,6,1.0,53.0,2,1607.1233,103.0,6.0,DON'T EAT                                    EAT,1606.4327,1596.3578,1404.9093
55,1,False,right,approach,pos,cake23_crop.jpg,1,6,1.0,54.0,2,1609.1093,103.0,6.0,DON'T EAT                                    EAT,1608.4512,1596.3578,1404.9093
56,1,False,right,approach,pos,cake1_crop.jpg,1,6,1.0,55.0,2,1611.1389,103.0,6.0,DON'T EAT                                    EAT,1610.4695,1596.3578,1404.9093
57,1,False,right,approach,pos,cake16_crop.jpg,1,6,1.0,56.0,2,1613.1023,103.0,6.0,DON'T EAT                                    EAT,1612.4878,1596.3578,1404.9093
58,1,True,right,avoid,neg,fungus7_crop.jpg,1,6,1.0,57.0,1,1615.3619,103.0,6.0,DON'T EAT                                    EAT,1614.5062,1596.3578,1404.9093
59,1,True,right,avoid,pos,meat39_crop.jpg,1,6,1.0,58.0,1,1617.6982,103.0,6.0,DON'T EAT                                    EAT,1616.5245,1596.3578,1404.9093
60,1,False,right,approach,pos,cake6_crop.jpg,1,6,1.0,59.0,2,1619.7609,103.0,6.0,DON'T EAT                                    EAT,1618.5428,1596.3578,1404.9093
61,3,False,right,approach,pos,cake24_crop.jpg,1,7,1.0,60.0,2,1639.1322,103.0,7.0,DON'T EAT                                    EAT,1637.959,1633.939,1404.9093
62,3,False,right,approach,pos,cake13_crop.jpg,1,7,1.0,61.0,2,1640.6575,103.0,7.0,DON'T EAT                                    EAT,1639.9773,1633.939,1404.9093
63,3,False,right,approach,pos,cake20_crop.jpg,1,7,1.0,62.0,2,1642.6757,103.0,7.0,DON'T EAT                                    EAT,1641.9957,1633.939,1404.9093
64,3,False,right,approach,pos,cake5_crop.jpg,1,7,1.0,63.0,2,1644.7382,103.0,7.0,DON'T EAT                                    EAT,1644.014,1633.939,1404.9093
65,3,True,right,avoid,pos,meat16_crop.jpg,1,7,1.0,64.0,--,--,103.0,7.0,DON'T EAT                                    EAT,1646.0323,1633.939,1404.9093
66,3,False,right,approach,pos,cake14_crop.jpg,1,7,1.0,65.0,1,1648.3325,103.0,7.0,DON'T EAT                                    EAT,1648.0508,1633.939,1404.9093
67,3,False,right,approach,pos,cake35_crop.jpg,1,7,1.0,66.0,2,1651.0742,103.0,7.0,DON'T EAT                                    EAT,1650.0691,1633.939,1404.9093
68,3,False,right,approach,pos,cake18_crop.jpg,1,7,1.0,67.0,2,1652.8995,103.0,7.0,DON'T EAT                                    EAT,1652.0874,1633.939,1404.9093
69,3,False,right,approach,pos,cake22_crop.jpg,1,7,1.0,68.0,2,1654.6757,103.0,7.0,DON'T EAT                                    EAT,1654.1057,1633.939,1404.9093
70,3,True,right,avoid,neg,fungus10_crop.jpg,1,7,1.0,69.0,1,1656.8921,103.0,7.0,DON'T EAT                                    EAT,1656.124,1633.939,1404.9093
71,1,False,left,approach,neg,insect23_crop.jpg,1,8,1.0,70.0,2,1674.5385,103.0,8.0,DON'T EAT                                    EAT,1672.8713,1668.8513,1404.9093
72,1,False,left,approach,neg,insect39_crop.jpg,1,8,1.0,71.0,2,1675.7672,103.0,8.0,DON'T EAT                                    EAT,1674.8896,1668.8513,1404.9093
73,1,False,left,approach,neg,insect28_crop.jpg,1,8,1.0,72.0,2,1677.6759,103.0,8.0,DON'T EAT                                    EAT,1676.908,1668.8513,1404.9093
74,1,True,left,avoid,pos,meat6_crop.jpg,1,8,1.0,73.0,1,1680.8982,103.0,8.0,DON'T EAT                                    EAT,1678.9264,1668.8513,1404.9093
75,1,True,left,avoid,neg,fungus37_crop.jpg,1,8,1.0,74.0,1,1682.053,103.0,8.0,DON'T EAT                                    EAT,1680.9447,1668.8513,1404.9093
76,1,False,left,approach,neg,insect17_crop.jpg,1,8,1.0,75.0,2,1684.027,103.0,8.0,DON'T EAT                                    EAT,1682.963,1668.8513,1404.9093
77,1,False,left,approach,neg,insect24_crop.jpg,1,8,1.0,76.0,2,1685.6832,103.0,8.0,DON'T EAT                                    EAT,1684.9813,1668.8513,1404.9093
78,1,False,left,approach,neg,insect11_crop.jpg,1,8,1.0,77.0,2,1687.6799,103.0,8.0,DON'T EAT                                    EAT,1686.9996,1668.8513,1404.9093
79,1,False,left,approach,neg,insect15_crop.jpg,1,8,1.0,78.0,2,1689.7421,103.0,8.0,DON'T EAT                                    EAT,1689.0181,1668.8513,1404.9093
80,1,False,left,approach,neg,insect6_crop.jpg,1,8,1.0,79.0,2,1691.4973,103.0,8.0,DON'T EAT                                    EAT,1691.0364,1668.8513,1404.9093
81,2,False,left,approach,pos,cake9_crop.jpg,2,9,1.0,80.0,2,1809.4215,103.0,9.0,DON'T EAT                                    EAT,1808.0835,1804.0636,1793.9673
82,2,False,left,approach,pos,cake18_crop.jpg,2,9,1.0,81.0,2,1810.7705,103.0,9.0,DON'T EAT                                    EAT,1810.1019,1804.0636,1793.9673
83,2,True,left,avoid,neg,fungus16_crop.jpg,2,9,1.0,82.0,1,1813.0082,103.0,9.0,DON'T EAT                                    EAT,1812.1202,1804.0636,1793.9673
84,2,False,left,approach,pos,cake16_crop.jpg,2,9,1.0,83.0,2,1814.9943,103.0,9.0,DON'T EAT                                    EAT,1814.1385,1804.0636,1793.9673
85,2,False,left,approach,pos,cake20_crop.jpg,2,9,1.0,84.0,2,1816.8702,103.0,9.0,DON'T EAT                                    EAT,1816.1569,1804.0636,1793.9673
86,2,True,left,avoid,pos,meat35_crop.jpg,2,9,1.0,85.0,1,1819.5355,103.0,9.0,DON'T EAT                                    EAT,1818.1753,1804.0636,1793.9673
87,2,False,left,approach,pos,cake21_crop.jpg,2,9,1.0,86.0,2,1821.0054,103.0,9.0,DON'T EAT                                    EAT,1820.1936,1804.0636,1793.9673
88,2,False,left,approach,pos,cake5_crop.jpg,2,9,1.0,87.0,2,1822.9141,103.0,9.0,DON'T EAT                                    EAT,1822.2119,1804.0636,1793.9673
89,2,False,left,approach,pos,cake35_crop.jpg,2,9,1.0,88.0,2,1824.9427,103.0,9.0,DON'T EAT                                    EAT,1824.2302,1804.0636,1793.9673
90,2,False,left,approach,pos,cake30_crop.jpg,2,9,1.0,89.0,2,1827.378,103.0,9.0,DON'T EAT                                    EAT,1826.2487,1804.0636,1793.9673
91,0,True,right,avoid,pos,meat36_crop.jpg,2,10,1.0,90.0,1,1846.3151,103.0,10.0,DON'T EAT                                    EAT,1844.714,1840.694,1793.9673
92,0,False,right,approach,neg,insect28_crop.jpg,2,10,1.0,91.0,2,1847.5334,103.0,10.0,DON'T EAT                                    EAT,1846.7324,1840.694,1793.9673
93,0,False,right,approach,neg,insect2_crop.jpg,2,10,1.0,92.0,2,1850.0016,103.0,10.0,DON'T EAT                                    EAT,1848.7506,1840.694,1793.9673
94,0,True,right,avoid,neg,fungus33_crop.jpg,2,10,1.0,93.0,1,1851.6248,103.0,10.0,DON'T EAT                                    EAT,1850.769,1840.694,1793.9673
95,0,False,right,approach,neg,insect25_crop.jpg,2,10,1.0,94.0,2,1853.517,103.0,10.0,DON'T EAT                                    EAT,1852.7874,1840.694,1793.9673
96,0,False,right,approach,neg,insect36_crop.jpg,2,10,1.0,95.0,2,1855.792,103.0,10.0,DON'T EAT                                    EAT,1854.8057,1840.694,1793.9673
97,0,False,right,approach,neg,insect26_crop.jpg,2,10,1.0,96.0,2,1858.0828,103.0,10.0,DON'T EAT                                    EAT,1856.8239,1840.694,1793.9673
98,0,False,right,approach,neg,insect17_crop.jpg,2,10,1.0,97.0,2,1859.5446,103.0,10.0,DON'T EAT                                    EAT,1858.8423,1840.694,1793.9673
99,0,False,right,approach,neg,insect35_crop.jpg,2,10,1.0,98.0,2,1861.6615,103.0,10.0,DON'T EAT                                    EAT,1860.8607,1840.694,1793.9673
100,0,False,right,approach,neg,insect31_crop.jpg,2,10,1.0,99.0,2,1863.9324,103.0,10.0,DON'T EAT                                    EAT,1862.879,1840.694,1793.9673
101,3,True,right,avoid,neg,fungus26_crop.jpg,2,11,1.0,100.0,1,1883.0754,103.0,11.0,DON'T EAT                                    EAT,1882.0115,1877.9916,1793.9673
102,3,False,right,approach,neg,insect12_crop.jpg,2,11,1.0,101.0,2,1885.1927,103.0,11.0,DON'T EAT                                    EAT,1884.0299,1877.9916,1793.9673
103,3,False,right,approach,neg,insect20_crop.jpg,2,11,1.0,102.0,2,1887.2223,103.0,11.0,DON'T EAT                                    EAT,1886.0482,1877.9916,1793.9673
104,3,False,right,approach,neg,insect10_crop.jpg,2,11,1.0,103.0,2,1888.9552,103.0,11.0,DON'T EAT                                    EAT,1888.0667,1877.9916,1793.9673
105,3,False,right,approach,neg,insect27_crop.jpg,2,11,1.0,104.0,2,1890.732,103.0,11.0,DON'T EAT                                    EAT,1890.085,1877.9916,1793.9673
106,3,False,right,approach,neg,insect6_crop.jpg,2,11,1.0,105.0,2,1893.2224,103.0,11.0,DON'T EAT                                    EAT,1892.1033,1877.9916,1793.9673
107,3,False,right,approach,neg,insect22_crop.jpg,2,11,1.0,106.0,2,1894.922,103.0,11.0,DON'T EAT                                    EAT,1894.1217,1877.9916,1793.9673
108,3,False,right,approach,neg,insect1_crop.jpg,2,11,1.0,107.0,2,1897.3467,103.0,11.0,DON'T EAT                                    EAT,1896.14,1877.9916,1793.9673
109,3,True,right,avoid,pos,meat35_crop.jpg,2,11,1.0,108.0,1,1899.0359,103.0,11.0,DON'T EAT                                    EAT,1898.1583,1877.9916,1793.9673
110,3,False,right,approach,neg,insect40_crop.jpg,2,11,1.0,109.0,2,1901.1971,103.0,11.0,DON'T EAT                                    EAT,1900.1766,1877.9916,1793.9673
111,0,True,left,avoid,neg,fungus23_crop.jpg,2,12,1.0,110.0,1,1921.2534,103.0,12.0,DON'T EAT                                    EAT,1919.9264,1915.9064,1793.9673
112,0,True,left,avoid,pos,meat34_crop.jpg,2,12,1.0,111.0,2,1923.8462,103.0,12.0,DON'T EAT                                    EAT,1921.9447,1915.9064,1793.9673
113,0,False,left,approach,neg,insect26_crop.jpg,2,12,1.0,112.0,2,1924.9836,103.0,12.0,DON'T EAT                                    EAT,1923.9631,1915.9064,1793.9673
114,0,False,left,approach,neg,insect25_crop.jpg,2,12,1.0,113.0,2,1926.5952,103.0,12.0,DON'T EAT                                    EAT,1925.9814,1915.9064,1793.9673
115,0,False,left,approach,neg,insect3_crop.jpg,2,12,1.0,114.0,2,1929.3165,103.0,12.0,DON'T EAT                                    EAT,1927.9998,1915.9064,1793.9673
116,0,False,left,approach,neg,insect12_crop.jpg,2,12,1.0,115.0,2,1930.5995,103.0,12.0,DON'T EAT                                    EAT,1930.0181,1915.9064,1793.9673
117,0,False,left,approach,neg,insect20_crop.jpg,2,12,1.0,116.0,2,1932.8153,103.0,12.0,DON'T EAT                                    EAT,1932.0364,1915.9064,1793.9673
118,0,False,left,approach,neg,insect32_crop.jpg,2,12,1.0,117.0,2,1934.5703,103.0,12.0,DON'T EAT                                    EAT,1934.0548,1915.9064,1793.9673
119,0,False,left,approach,neg,insect21_crop.jpg,2,12,1.0,118.0,2,1936.8412,103.0,12.0,DON'T EAT                                    EAT,1936.0731,1915.9064,1793.9673
120,0,False,left,approach,neg,insect4_crop.jpg,2,12,1.0,119.0,2,1938.7826,103.0,12.0,DON'T EAT                                    EAT,1938.0916,1915.9064,1793.9673
121,1,False,right,approach,neg,insect5_crop.jpg,2,13,1.0,120.0,2,1958.9043,103.0,13.0,DON'T EAT                                    EAT,1957.9579,1953.9379,1793.9673
122,1,False,right,approach,neg,insect13_crop.jpg,2,13,1.0,121.0,2,1960.8649,103.0,13.0,DON'T EAT                                    EAT,1959.9763,1953.9379,1793.9673
123,1,False,right,approach,neg,insect16_crop.jpg,2,13,1.0,122.0,2,1962.5103,103.0,13.0,DON'T EAT                                    EAT,1961.9946,1953.9379,1793.9673
124,1,True,right,avoid,neg,fungus23_crop.jpg,2,13,1.0,123.0,1,1964.8029,103.0,13.0,DON'T EAT                                    EAT,1964.0131,1953.9379,1793.9673
125,1,False,right,approach,neg,insect11_crop.jpg,2,13,1.0,124.0,2,1966.9308,103.0,13.0,DON'T EAT                                    EAT,1966.0315,1953.9379,1793.9673
126,1,True,right,avoid,pos,meat6_crop.jpg,2,13,1.0,125.0,1,1969.0696,103.0,13.0,DON'T EAT                                    EAT,1968.0498,1953.9379,1793.9673
127,1,False,right,approach,neg,insect8_crop.jpg,2,13,1.0,126.0,2,1970.8245,103.0,13.0,DON'T EAT                                    EAT,1970.068,1953.9379,1793.9673
128,1,False,right,approach,neg,insect30_crop.jpg,2,13,1.0,127.0,2,1973.0626,103.0,13.0,DON'T EAT                                    EAT,1972.0863,1953.9379,1793.9673
129,1,False,right,approach,neg,insect21_crop.jpg,2,13,1.0,128.0,2,1974.697,103.0,13.0,DON'T EAT                                    EAT,1974.1049,1953.9379,1793.9673
130,1,False,right,approach,neg,insect33_crop.jpg,2,13,1.0,129.0,2,1976.8031,103.0,13.0,DON'T EAT                                    EAT,1976.123,1953.9379,1793.9673
131,1,False,right,avoid,pos,meat32_crop.jpg,2,14,1.0,130.0,--,--,103.0,14.0,DON'T EAT                                    EAT,1995.2389,1991.219,1793.9673
132,1,False,right,avoid,pos,meat30_crop.jpg,2,14,1.0,131.0,1,1997.2683,103.0,14.0,DON'T EAT                                    EAT,1997.2572,1991.219,1793.9673
133,1,True,right,approach,pos,cake3_crop.jpg,2,14,1.0,132.0,2,2000.3834,103.0,14.0,DON'T EAT                                    EAT,1999.2756,1991.219,1793.9673
134,1,False,right,avoid,pos,meat20_crop.jpg,2,14,1.0,133.0,1,2002.1168,103.0,14.0,DON'T EAT                                    EAT,2001.294,1991.219,1793.9673
135,1,False,right,avoid,pos,meat24_crop.jpg,2,14,1.0,134.0,1,2004.2118,103.0,14.0,DON'T EAT                                    EAT,2003.3123,1991.219,1793.9673
136,1,False,right,avoid,pos,meat28_crop.jpg,2,14,1.0,135.0,1,2006.4277,103.0,14.0,DON'T EAT                                    EAT,2005.3306,1991.219,1793.9673
137,1,False,right,avoid,pos,meat29_crop.jpg,2,14,1.0,136.0,1,2007.9412,103.0,14.0,DON'T EAT                                    EAT,2007.349,1991.219,1793.9673
138,1,False,right,avoid,pos,meat9_crop.jpg,2,14,1.0,137.0,1,2010.9908,103.0,14.0,DON'T EAT                                    EAT,2009.3672,1991.219,1793.9673
139,1,False,right,avoid,pos,meat18_crop.jpg,2,14,1.0,138.0,1,2012.1975,103.0,14.0,DON'T EAT                                    EAT,2011.3856,1991.219,1793.9673
140,1,True,right,approach,neg,insect18_crop.jpg,2,14,1.0,139.0,2,2014.1387,103.0,14.0,DON'T EAT                                    EAT,2013.404,1991.219,1793.9673
141,1,False,right,avoid,neg,fungus40_crop.jpg,2,15,1.0,140.0,1,2032.1282,103.0,15.0,DON'T EAT                                    EAT,2030.7684,2026.7485,1793.9673
142,1,False,right,avoid,neg,fungus18_crop.jpg,2,15,1.0,141.0,1,2033.5549,103.0,15.0,DON'T EAT                                    EAT,2032.7867,2026.7485,1793.9673
143,1,True,right,approach,pos,cake28_crop.jpg,2,15,1.0,142.0,2,2035.5072,103.0,15.0,DON'T EAT                                    EAT,2034.805,2026.7485,1793.9673
144,1,False,right,avoid,neg,fungus5_crop.jpg,2,15,1.0,143.0,1,2037.81,103.0,15.0,DON'T EAT                                    EAT,2036.8232,2026.7485,1793.9673
145,1,False,right,avoid,neg,fungus1_crop.jpg,2,15,1.0,144.0,1,2040.1912,103.0,15.0,DON'T EAT                                    EAT,2038.842,2026.7485,1793.9673
146,1,False,right,avoid,neg,fungus38_crop.jpg,2,15,1.0,145.0,1,2041.6393,103.0,15.0,DON'T EAT                                    EAT,2040.8602,2026.7485,1793.9673
147,1,False,right,avoid,neg,fungus17_crop.jpg,2,15,1.0,146.0,1,2043.866,103.0,15.0,DON'T EAT                                    EAT,2042.8784,2026.7485,1793.9673
148,1,True,right,approach,neg,insect14_crop.jpg,2,15,1.0,147.0,2,2045.8177,103.0,15.0,DON'T EAT                                    EAT,2044.8969,2026.7485,1793.9673
149,1,False,right,avoid,neg,fungus12_crop.jpg,2,15,1.0,148.0,1,2048.616,103.0,15.0,DON'T EAT                                    EAT,2046.9153,2026.7485,1793.9673
150,1,False,right,avoid,neg,fungus28_crop.jpg,2,15,1.0,149.0,1,2049.657,103.0,15.0,DON'T EAT                                    EAT,2048.9336,2026.7485,1793.9673
151,2,False,left,avoid,neg,fungus6_crop.jpg,2,16,1.0,150.0,1,2069.0442,103.0,16.0,DON'T EAT                                    EAT,2067.849,2063.829,1793.9673
152,2,False,left,avoid,neg,fungus5_crop.jpg,2,16,1.0,151.0,1,2070.5479,103.0,16.0,DON'T EAT                                    EAT,2069.8674,2063.829,1793.9673
153,2,False,left,avoid,neg,fungus11_crop.jpg,2,16,1.0,152.0,1,2072.6208,103.0,16.0,DON'T EAT                                    EAT,2071.886,2063.829,1793.9673
154,2,True,left,approach,pos,cake10_crop.jpg,2,16,1.0,153.0,2,2075.4182,103.0,16.0,DON'T EAT                                    EAT,2073.9043,2063.829,1793.9673
155,2,False,left,avoid,neg,fungus18_crop.jpg,2,16,1.0,154.0,1,2076.7014,103.0,16.0,DON'T EAT                                    EAT,2075.9226,2063.829,1793.9673
156,2,True,left,approach,neg,insect1_crop.jpg,2,16,1.0,155.0,2,2078.6099,103.0,16.0,DON'T EAT                                    EAT,2077.941,2063.829,1793.9673
157,2,False,left,avoid,neg,fungus31_crop.jpg,2,16,1.0,156.0,1,2080.727,103.0,16.0,DON'T EAT                                    EAT,2079.9592,2063.829,1793.9673
158,2,False,left,avoid,neg,fungus30_crop.jpg,2,16,1.0,157.0,1,2082.6357,103.0,16.0,DON'T EAT                                    EAT,2081.9775,2063.829,1793.9673
159,2,False,left,avoid,neg,fungus39_crop.jpg,2,16,1.0,158.0,--,--,103.0,16.0,DON'T EAT                                    EAT,2083.9958,2063.829,1793.9673
160,2,False,left,avoid,neg,fungus15_crop.jpg,2,16,1.0,159.0,1,2086.2007,103.0,16.0,DON'T EAT                                    EAT,2086.0144,2063.829,1793.9673
161,1,False,left,avoid,pos,meat17_crop.jpg,3,17,1.0,160.0,1,2175.7012,103.0,17.0,DON'T EAT                                    EAT,2174.571,2170.5679,2158.5972
162,1,True,left,approach,neg,insect19_crop.jpg,3,17,1.0,161.0,2,2177.4343,103.0,17.0,DON'T EAT                                    EAT,2176.5896,2170.5679,2158.5972
163,1,False,left,avoid,pos,meat31_crop.jpg,3,17,1.0,162.0,1,2179.3647,103.0,17.0,DON'T EAT                                    EAT,2178.608,2170.5679,2158.5972
164,1,False,left,avoid,pos,meat13_crop.jpg,3,17,1.0,163.0,1,2181.5808,103.0,17.0,DON'T EAT                                    EAT,2180.6262,2170.5679,2158.5972
165,1,True,left,approach,pos,cake8_crop.jpg,3,17,1.0,164.0,2,2183.379,103.0,17.0,DON'T EAT                                    EAT,2182.6445,2170.5679,2158.5972
166,1,False,left,avoid,pos,meat20_crop.jpg,3,17,1.0,165.0,1,2185.343,103.0,17.0,DON'T EAT                                    EAT,2184.6628,2170.5679,2158.5972
167,1,False,left,avoid,pos,meat5_crop.jpg,3,17,1.0,166.0,1,2187.4265,103.0,17.0,DON'T EAT                                    EAT,2186.6812,2170.5679,2158.5972
168,1,False,left,avoid,pos,meat9_crop.jpg,3,17,1.0,167.0,1,2189.4126,103.0,17.0,DON'T EAT                                    EAT,2188.6995,2170.5679,2158.5972
169,1,False,left,avoid,pos,meat7_crop.jpg,3,17,1.0,168.0,1,2191.3542,103.0,17.0,DON'T EAT                                    EAT,2190.7178,2170.5679,2158.5972
170,1,False,left,avoid,pos,meat10_crop.jpg,3,17,1.0,169.0,1,2193.7236,103.0,17.0,DON'T EAT                                    EAT,2192.7363,2170.5679,2158.5972
171,3,False,left,avoid,pos,meat18_crop.jpg,3,18,1.0,170.0,1,2211.9604,103.0,18.0,DON'T EAT                                    EAT,2210.9514,2206.948,2158.5972
172,3,True,left,approach,neg,insect40_crop.jpg,3,18,1.0,171.0,2,2214.3408,103.0,18.0,DON'T EAT                                    EAT,2212.9697,2206.948,2158.5972
173,3,False,left,avoid,pos,meat36_crop.jpg,3,18,1.0,172.0,1,2215.6355,103.0,18.0,DON'T EAT                                    EAT,2214.988,2206.948,2158.5972
174,3,False,left,avoid,pos,meat23_crop.jpg,3,18,1.0,173.0,1,2217.6865,103.0,18.0,DON'T EAT                                    EAT,2217.0066,2206.948,2158.5972
175,3,False,left,avoid,pos,meat14_crop.jpg,3,18,1.0,174.0,1,2219.8804,103.0,18.0,DON'T EAT                                    EAT,2219.0247,2206.948,2158.5972
176,3,True,left,approach,pos,cake11_crop.jpg,3,18,1.0,175.0,2,2222.0522,103.0,18.0,DON'T EAT                                    EAT,2221.043,2206.948,2158.5972
177,3,False,left,avoid,pos,meat4_crop.jpg,3,18,1.0,176.0,1,2223.6648,103.0,18.0,DON'T EAT                                    EAT,2223.0613,2206.948,2158.5972
178,3,False,left,avoid,pos,meat24_crop.jpg,3,18,1.0,177.0,1,2225.7927,103.0,18.0,DON'T EAT                                    EAT,2225.0798,2206.948,2158.5972
179,3,False,left,avoid,pos,meat28_crop.jpg,3,18,1.0,178.0,1,2227.8442,103.0,18.0,DON'T EAT                                    EAT,2227.0981,2206.948,2158.5972
180,3,False,left,avoid,pos,meat38_crop.jpg,3,18,1.0,179.0,1,2229.7966,103.0,18.0,DON'T EAT                                    EAT,2229.1165,2206.948,2158.5972
181,3,False,left,avoid,neg,fungus9_crop.jpg,3,19,1.0,180.0,--,--,103.0,19.0,DON'T EAT                                    EAT,2248.4824,2244.4626,2158.5972
182,3,False,left,avoid,neg,fungus20_crop.jpg,3,19,1.0,181.0,1,2250.578,103.0,19.0,DON'T EAT                                    EAT,2250.5007,2244.4626,2158.5972
183,3,True,left,approach,neg,insect14_crop.jpg,3,19,1.0,182.0,2,2253.353,103.0,19.0,DON'T EAT                                    EAT,2252.519,2244.4626,2158.5972
184,3,False,left,avoid,neg,fungus4_crop.jpg,3,19,1.0,183.0,1,2255.4043,103.0,19.0,DON'T EAT                                    EAT,2254.5376,2244.4626,2158.5972
185,3,False,left,avoid,neg,fungus21_crop.jpg,3,19,1.0,184.0,--,--,103.0,19.0,DON'T EAT                                    EAT,2256.556,2244.4626,2158.5972
186,3,False,left,avoid,neg,fungus22_crop.jpg,3,19,1.0,185.0,1,2259.4453,103.0,19.0,DON'T EAT                                    EAT,2258.5742,2244.4626,2158.5972
187,3,True,left,approach,pos,cake23_crop.jpg,3,19,1.0,186.0,2,2261.4714,103.0,19.0,DON'T EAT                                    EAT,2260.5925,2244.4626,2158.5972
188,3,False,left,avoid,neg,fungus33_crop.jpg,3,19,1.0,187.0,1,2263.2998,103.0,19.0,DON'T EAT                                    EAT,2262.6108,2244.4626,2158.5972
189,3,False,left,avoid,neg,fungus38_crop.jpg,3,19,1.0,188.0,1,2265.3533,103.0,19.0,DON'T EAT                                    EAT,2264.6292,2244.4626,2158.5972
190,3,False,left,avoid,neg,fungus10_crop.jpg,3,19,1.0,189.0,1,2267.4043,103.0,19.0,DON'T EAT                                    EAT,2266.6475,2244.4626,2158.5972
191,0,False,left,approach,pos,cake7_crop.jpg,3,20,1.0,190.0,--,--,103.0,20.0,DON'T EAT                                    EAT,2286.297,2282.294,2158.5972
192,0,True,left,avoid,pos,meat33_crop.jpg,3,20,1.0,191.0,2,2288.5786,103.0,20.0,DON'T EAT                                    EAT,2288.3154,2282.294,2158.5972
193,0,False,left,approach,pos,cake26_crop.jpg,3,20,1.0,192.0,2,2291.5735,103.0,20.0,DON'T EAT                                    EAT,2290.334,2282.294,2158.5972
194,0,True,left,avoid,neg,fungus36_crop.jpg,3,20,1.0,193.0,1,2293.4824,103.0,20.0,DON'T EAT                                    EAT,2292.3523,2282.294,2158.5972
195,0,False,left,approach,pos,cake6_crop.jpg,3,20,1.0,194.0,2,2295.2485,103.0,20.0,DON'T EAT                                    EAT,2294.3706,2282.294,2158.5972
196,0,False,left,approach,pos,cake38_crop.jpg,3,20,1.0,195.0,2,2297.2776,103.0,20.0,DON'T EAT                                    EAT,2296.389,2282.294,2158.5972
197,0,False,left,approach,pos,cake29_crop.jpg,3,20,1.0,196.0,2,2299.4165,103.0,20.0,DON'T EAT                                    EAT,2298.4072,2282.294,2158.5972
198,0,False,left,approach,pos,cake28_crop.jpg,3,20,1.0,197.0,2,2301.1719,103.0,20.0,DON'T EAT                                    EAT,2300.4255,2282.294,2158.5972
199,0,False,left,approach,pos,cake12_crop.jpg,3,20,1.0,198.0,2,2303.179,103.0,20.0,DON'T EAT                                    EAT,2302.4438,2282.294,2158.5972
200,0,False,left,approach,pos,cake34_crop.jpg,3,20,1.0,199.0,2,2304.967,103.0,20.0,DON'T EAT                                    EAT,2304.4622,2282.294,2158.5972
201,1,False,left,approach,pos,cake39_crop.jpg,3,21,1.0,200.0,2,2325.6616,103.0,21.0,DON'T EAT                                    EAT,2323.9285,2319.9084,2158.5972
202,1,True,left,avoid,neg,fungus8_crop.jpg,3,21,1.0,201.0,1,2327.318,103.0,21.0,DON'T EAT                                    EAT,2325.9468,2319.9084,2158.5972
203,1,True,left,avoid,pos,meat39_crop.jpg,3,21,1.0,202.0,1,2329.0513,103.0,21.0,DON'T EAT                                    EAT,2327.965,2319.9084,2158.5972
204,1,False,left,approach,pos,cake15_crop.jpg,3,21,1.0,203.0,2,2330.762,103.0,21.0,DON'T EAT                                    EAT,2329.9834,2319.9084,2158.5972
205,1,False,left,approach,pos,cake40_crop.jpg,3,21,1.0,204.0,2,2333.044,103.0,21.0,DON'T EAT                                    EAT,2332.0017,2319.9084,2158.5972
206,1,False,left,approach,pos,cake32_crop.jpg,3,21,1.0,205.0,2,2335.556,103.0,21.0,DON'T EAT                                    EAT,2334.0203,2319.9084,2158.5972
207,1,False,left,approach,pos,cake25_crop.jpg,3,21,1.0,206.0,2,2336.6965,103.0,21.0,DON'T EAT                                    EAT,2336.0386,2319.9084,2158.5972
208,1,False,left,approach,pos,cake36_crop.jpg,3,21,1.0,207.0,2,2338.6821,103.0,21.0,DON'T EAT                                    EAT,2338.057,2319.9084,2158.5972
209,1,False,left,approach,pos,cake19_crop.jpg,3,21,1.0,208.0,2,2340.975,103.0,21.0,DON'T EAT                                    EAT,2340.0752,2319.9084,2158.5972
210,1,False,left,approach,pos,cake14_crop.jpg,3,21,1.0,209.0,2,2342.752,103.0,21.0,DON'T EAT                                    EAT,2342.0935,2319.9084,2158.5972
211,0,True,right,approach,neg,insect19_crop.jpg,3,22,1.0,210.0,2,2362.2542,103.0,22.0,DON'T EAT                                    EAT,2361.3928,2357.3896,2158.5972
212,0,False,right,avoid,neg,fungus20_crop.jpg,3,22,1.0,211.0,1,2364.2537,103.0,22.0,DON'T EAT                                    EAT,2363.4111,2357.3896,2158.5972
213,0,False,right,avoid,neg,fungus9_crop.jpg,3,22,1.0,212.0,1,2366.7893,103.0,22.0,DON'T EAT                                    EAT,2365.4294,2357.3896,2158.5972
214,0,False,right,avoid,neg,fungus24_crop.jpg,3,22,1.0,213.0,1,2368.128,103.0,22.0,DON'T EAT                                    EAT,2367.448,2357.3896,2158.5972
215,0,False,right,avoid,neg,fungus8_crop.jpg,3,22,1.0,214.0,1,2370.1245,103.0,22.0,DON'T EAT                                    EAT,2369.4663,2357.3896,2158.5972
216,0,False,right,avoid,neg,fungus29_crop.jpg,3,22,1.0,215.0,1,2372.1099,103.0,22.0,DON'T EAT                                    EAT,2371.4846,2357.3896,2158.5972
217,0,True,right,approach,pos,cake33_crop.jpg,3,22,1.0,216.0,2,2374.4573,103.0,22.0,DON'T EAT                                    EAT,2373.503,2357.3896,2158.5972
218,0,False,right,avoid,neg,fungus34_crop.jpg,3,22,1.0,217.0,1,2376.772,103.0,22.0,DON'T EAT                                    EAT,2375.5212,2357.3896,2158.5972
219,0,False,right,avoid,neg,fungus21_crop.jpg,3,22,1.0,218.0,2,2378.0771,103.0,22.0,DON'T EAT                                    EAT,2377.5396,2357.3896,2158.5972
220,0,False,right,avoid,neg,fungus30_crop.jpg,3,22,1.0,219.0,1,2380.359,103.0,22.0,DON'T EAT                                    EAT,2379.5579,2357.3896,2158.5972
221,2,False,left,avoid,pos,meat11_crop.jpg,3,23,1.0,220.0,1,2397.4177,103.0,23.0,DON'T EAT                                    EAT,2396.2551,2392.235,2158.5972
222,2,True,left,approach,neg,insect16_crop.jpg,3,23,1.0,221.0,2,2399.4146,103.0,23.0,DON'T EAT                                    EAT,2398.2734,2392.235,2158.5972
223,2,False,left,avoid,pos,meat26_crop.jpg,3,23,1.0,222.0,1,2401.6077,103.0,23.0,DON'T EAT                                    EAT,2400.2917,2392.235,2158.5972
224,2,False,left,avoid,pos,meat19_crop.jpg,3,23,1.0,223.0,1,2403.0232,103.0,23.0,DON'T EAT                                    EAT,2402.3103,2392.235,2158.5972
225,2,False,left,avoid,pos,meat32_crop.jpg,3,23,1.0,224.0,1,2405.2166,103.0,23.0,DON'T EAT                                    EAT,2404.3286,2392.235,2158.5972
226,2,False,left,avoid,pos,meat12_crop.jpg,3,23,1.0,225.0,1,2406.9944,103.0,23.0,DON'T EAT                                    EAT,2406.347,2392.235,2158.5972
227,2,False,left,avoid,pos,meat22_crop.jpg,3,23,1.0,226.0,1,2409.0447,103.0,23.0,DON'T EAT                                    EAT,2408.3652,2392.235,2158.5972
228,2,True,left,approach,pos,cake2_crop.jpg,3,23,1.0,227.0,2,2411.4148,103.0,23.0,DON'T EAT                                    EAT,2410.3835,2392.235,2158.5972
229,2,False,left,avoid,pos,meat40_crop.jpg,3,23,1.0,228.0,1,2413.433,103.0,23.0,DON'T EAT                                    EAT,2412.4019,2392.235,2158.5972
230,2,False,left,avoid,pos,meat2_crop.jpg,3,23,1.0,229.0,1,2415.4841,103.0,23.0,DON'T EAT                                    EAT,2414.4202,2392.235,2158.5972
231,2,False,left,approach,neg,insect5_crop.jpg,3,24,1.0,230.0,--,--,103.0,24.0,DON'T EAT                                    EAT,2433.5527,2429.5327,2158.5972
232,2,False,left,approach,neg,insect27_crop.jpg,3,24,1.0,231.0,2,2435.648,103.0,24.0,DON'T EAT                                    EAT,2435.571,2429.5327,2158.5972
233,2,True,left,avoid,pos,meat1_crop.jpg,3,24,1.0,232.0,2,2439.5823,103.0,24.0,DON'T EAT                                    EAT,2437.5896,2429.5327,2158.5972
234,2,False,left,approach,neg,insect10_crop.jpg,3,24,1.0,233.0,2,2440.6055,103.0,24.0,DON'T EAT                                    EAT,2439.608,2429.5327,2158.5972
235,2,False,left,approach,neg,insect35_crop.jpg,3,24,1.0,234.0,2,2442.1968,103.0,24.0,DON'T EAT                                    EAT,2441.6262,2429.5327,2158.5972
236,2,False,left,approach,neg,insect38_crop.jpg,3,24,1.0,235.0,2,2444.1265,103.0,24.0,DON'T EAT                                    EAT,2443.6445,2429.5327,2158.5972
237,2,False,left,approach,neg,insect13_crop.jpg,3,24,1.0,236.0,2,2446.2004,103.0,24.0,DON'T EAT                                    EAT,2445.6628,2429.5327,2158.5972
238,2,True,left,avoid,neg,fungus40_crop.jpg,3,24,1.0,237.0,1,2448.7126,103.0,24.0,DON'T EAT                                    EAT,2447.6812,2429.5327,2158.5972
239,2,False,left,approach,neg,insect29_crop.jpg,3,24,1.0,238.0,2,2450.588,103.0,24.0,DON'T EAT                                    EAT,2449.6995,2429.5327,2158.5972
240,2,False,left,approach,neg,insect2_crop.jpg,3,24,1.0,239.0,2,2452.6392,103.0,24.0,DON'T EAT                                    EAT,2451.718,2429.5327,2158.5972
241,0,False,left,avoid,neg,fungus1_crop.jpg,4,25,1.0,240.0,1,2542.785,103.0,25.0,DON'T EAT                                    EAT,2541.776,2537.7559,2523.9832
242,0,False,left,avoid,neg,fungus35_crop.jpg,4,25,1.0,241.0,1,2544.65,103.0,25.0,DON'T EAT                                    EAT,2543.7942,2537.7559,2523.9832
243,0,True,left,approach,neg,insect34_crop.jpg,4,25,1.0,242.0,2,2546.5916,103.0,25.0,DON'T EAT                                    EAT,2545.8127,2537.7559,2523.9832
244,0,False,left,avoid,neg,fungus17_crop.jpg,4,25,1.0,243.0,1,2548.5444,103.0,25.0,DON'T EAT                                    EAT,2547.831,2537.7559,2523.9832
245,0,True,left,approach,pos,cake22_crop.jpg,4,25,1.0,244.0,2,2550.749,103.0,25.0,DON'T EAT                                    EAT,2549.8494,2537.7559,2523.9832
246,0,False,left,avoid,neg,fungus2_crop.jpg,4,25,1.0,245.0,1,2552.91,103.0,25.0,DON'T EAT                                    EAT,2551.868,2537.7559,2523.9832
247,0,False,left,avoid,neg,fungus27_crop.jpg,4,25,1.0,246.0,1,2554.764,103.0,25.0,DON'T EAT                                    EAT,2553.886,2537.7559,2523.9832
248,0,False,left,avoid,neg,fungus12_crop.jpg,4,25,1.0,247.0,1,2557.3855,103.0,25.0,DON'T EAT                                    EAT,2555.9045,2537.7559,2523.9832
249,0,False,left,avoid,neg,fungus13_crop.jpg,4,25,1.0,248.0,1,2558.8445,103.0,25.0,DON'T EAT                                    EAT,2557.9226,2537.7559,2523.9832
250,0,False,left,avoid,neg,fungus24_crop.jpg,4,25,1.0,249.0,1,2560.643,103.0,25.0,DON'T EAT                                    EAT,2559.9412,2537.7559,2523.9832
251,3,False,right,avoid,neg,fungus13_crop.jpg,4,26,1.0,250.0,1,2579.9297,103.0,26.0,DON'T EAT                                    EAT,2579.107,2575.1038,2523.9832
252,3,False,right,avoid,neg,fungus31_crop.jpg,4,26,1.0,251.0,1,2581.8494,103.0,26.0,DON'T EAT                                    EAT,2581.1252,2575.1038,2523.9832
253,3,False,right,avoid,neg,fungus3_crop.jpg,4,26,1.0,252.0,1,2583.8677,103.0,26.0,DON'T EAT                                    EAT,2583.1436,2575.1038,2523.9832
254,3,False,right,avoid,neg,fungus37_crop.jpg,4,26,1.0,253.0,1,2585.9412,103.0,26.0,DON'T EAT                                    EAT,2585.1619,2575.1038,2523.9832
255,3,False,right,avoid,neg,fungus22_crop.jpg,4,26,1.0,254.0,1,2587.7947,103.0,26.0,DON'T EAT                                    EAT,2587.1804,2575.1038,2523.9832
256,3,True,right,approach,pos,cake19_crop.jpg,4,26,1.0,255.0,2,2590.5254,103.0,26.0,DON'T EAT                                    EAT,2589.1987,2575.1038,2523.9832
257,3,True,right,approach,neg,insect24_crop.jpg,4,26,1.0,256.0,2,2593.0496,103.0,26.0,DON'T EAT                                    EAT,2591.217,2575.1038,2523.9832
258,3,False,right,avoid,neg,fungus39_crop.jpg,4,26,1.0,257.0,1,2593.9048,103.0,26.0,DON'T EAT                                    EAT,2593.2354,2575.1038,2523.9832
259,3,False,right,avoid,neg,fungus4_crop.jpg,4,26,1.0,258.0,1,2596.0657,103.0,26.0,DON'T EAT                                    EAT,2595.2537,2575.1038,2523.9832
260,3,False,right,avoid,neg,fungus32_crop.jpg,4,26,1.0,259.0,1,2598.2046,103.0,26.0,DON'T EAT                                    EAT,2597.272,2575.1038,2523.9832
261,0,False,left,avoid,pos,meat16_crop.jpg,4,27,1.0,260.0,1,2617.753,103.0,27.0,DON'T EAT                                    EAT,2616.371,2612.351,2523.9832
262,0,False,left,avoid,pos,meat29_crop.jpg,4,27,1.0,261.0,1,2619.4973,103.0,27.0,DON'T EAT                                    EAT,2618.3896,2612.351,2523.9832
263,0,False,left,avoid,pos,meat3_crop.jpg,4,27,1.0,262.0,1,2621.0222,103.0,27.0,DON'T EAT                                    EAT,2620.408,2612.351,2523.9832
264,0,False,left,avoid,pos,meat25_crop.jpg,4,27,1.0,263.0,1,2623.0625,103.0,27.0,DON'T EAT                                    EAT,2622.4263,2612.351,2523.9832
265,0,False,left,avoid,pos,meat15_crop.jpg,4,27,1.0,264.0,1,2625.0808,103.0,27.0,DON'T EAT                                    EAT,2624.4446,2612.351,2523.9832
266,0,True,left,approach,neg,insect9_crop.jpg,4,27,1.0,265.0,2,2627.571,103.0,27.0,DON'T EAT                                    EAT,2626.463,2612.351,2523.9832
267,0,False,left,avoid,pos,meat8_crop.jpg,4,27,1.0,266.0,1,2630.0613,103.0,27.0,DON'T EAT                                    EAT,2628.4814,2612.351,2523.9832
268,0,False,left,avoid,pos,meat27_crop.jpg,4,27,1.0,267.0,1,2631.1472,103.0,27.0,DON'T EAT                                    EAT,2630.4995,2612.351,2523.9832
269,0,False,left,avoid,pos,meat30_crop.jpg,4,27,1.0,268.0,1,2633.264,103.0,27.0,DON'T EAT                                    EAT,2632.518,2612.351,2523.9832
270,0,True,left,approach,pos,cake4_crop.jpg,4,27,1.0,269.0,2,2635.765,103.0,27.0,DON'T EAT                                    EAT,2634.5364,2612.351,2523.9832
271,3,False,left,approach,pos,cake37_crop.jpg,4,28,1.0,270.0,2,2654.0168,103.0,28.0,DON'T EAT                                    EAT,2653.085,2649.065,2523.9832
272,3,False,left,approach,pos,cake27_crop.jpg,4,28,1.0,271.0,2,2655.7612,103.0,28.0,DON'T EAT                                    EAT,2655.1033,2649.065,2523.9832
273,3,False,left,approach,pos,cake31_crop.jpg,4,28,1.0,272.0,2,2657.6914,103.0,28.0,DON'T EAT                                    EAT,2657.1218,2649.065,2523.9832
274,3,False,left,approach,pos,cake3_crop.jpg,4,28,1.0,273.0,2,2659.8423,103.0,28.0,DON'T EAT                                    EAT,2659.1401,2649.065,2523.9832
275,3,True,left,avoid,neg,fungus14_crop.jpg,4,28,1.0,274.0,1,2662.145,103.0,28.0,DON'T EAT                                    EAT,2661.1584,2649.065,2523.9832
276,3,False,left,approach,pos,cake33_crop.jpg,4,28,1.0,275.0,2,2664.032,103.0,28.0,DON'T EAT                                    EAT,2663.1768,2649.065,2523.9832
277,3,True,left,avoid,pos,meat21_crop.jpg,4,28,1.0,276.0,1,2666.2502,103.0,28.0,DON'T EAT                                    EAT,2665.195,2649.065,2523.9832
278,3,False,left,approach,pos,cake1_crop.jpg,4,28,1.0,277.0,2,2668.1016,103.0,28.0,DON'T EAT                                    EAT,2667.2139,2649.065,2523.9832
279,3,False,left,approach,pos,cake13_crop.jpg,4,28,1.0,278.0,--,--,103.0,28.0,DON'T EAT                                    EAT,2669.2324,2649.065,2523.9832
280,3,False,left,approach,pos,cake24_crop.jpg,4,28,1.0,279.0,1,2671.3032,103.0,28.0,DON'T EAT                                    EAT,2671.2507,2649.065,2523.9832
281,3,False,left,approach,neg,insect8_crop.jpg,4,29,1.0,280.0,2,2689.5408,103.0,29.0,DON'T EAT                                    EAT,2688.148,2684.1282,2523.9832
282,3,False,left,approach,neg,insect18_crop.jpg,4,29,1.0,281.0,2,2690.7583,103.0,29.0,DON'T EAT                                    EAT,2690.1663,2684.1282,2523.9832
283,3,False,left,approach,neg,insect30_crop.jpg,4,29,1.0,282.0,2,2692.6484,103.0,29.0,DON'T EAT                                    EAT,2692.1848,2684.1282,2523.9832
284,3,False,left,approach,neg,insect22_crop.jpg,4,29,1.0,283.0,2,2694.7783,103.0,29.0,DON'T EAT                                    EAT,2694.2026,2684.1282,2523.9832
285,3,False,left,approach,neg,insect36_crop.jpg,4,29,1.0,284.0,2,2696.6902,103.0,29.0,DON'T EAT                                    EAT,2696.2214,2684.1282,2523.9832
286,3,True,left,avoid,pos,meat37_crop.jpg,4,29,1.0,285.0,1,2699.509,103.0,29.0,DON'T EAT                                    EAT,2698.2397,2684.1282,2523.9832
287,3,False,left,approach,neg,insect31_crop.jpg,4,29,1.0,286.0,2,2701.1868,103.0,29.0,DON'T EAT                                    EAT,2700.258,2684.1282,2523.9832
288,3,True,left,avoid,neg,fungus3_crop.jpg,4,29,1.0,287.0,2,2703.7166,103.0,29.0,DON'T EAT                                    EAT,2702.2761,2684.1282,2523.9832
289,3,False,left,approach,neg,insect7_crop.jpg,4,29,1.0,288.0,1,2705.0037,103.0,29.0,DON'T EAT                                    EAT,2704.2947,2684.1282,2523.9832
290,3,False,left,approach,neg,insect33_crop.jpg,4,29,1.0,289.0,2,2707.8489,103.0,29.0,DON'T EAT                                    EAT,2706.3132,2684.1282,2523.9832
291,2,False,right,approach,neg,insect9_crop.jpg,4,30,1.0,290.0,2,2724.627,103.0,30.0,DON'T EAT                                    EAT,2723.3105,2719.2905,2523.9832
292,2,False,right,approach,neg,insect32_crop.jpg,4,30,1.0,291.0,2,2725.9138,103.0,30.0,DON'T EAT                                    EAT,2725.3289,2719.2905,2523.9832
293,2,True,right,avoid,pos,meat3_crop.jpg,4,30,1.0,292.0,1,2728.2764,103.0,30.0,DON'T EAT                                    EAT,2727.3467,2719.2905,2523.9832
294,2,False,right,approach,neg,insect23_crop.jpg,4,30,1.0,293.0,2,2730.319,103.0,30.0,DON'T EAT                                    EAT,2729.3652,2719.2905,2523.9832
295,2,False,right,approach,neg,insect39_crop.jpg,4,30,1.0,294.0,2,2732.4019,103.0,30.0,DON'T EAT                                    EAT,2731.3838,2719.2905,2523.9832
296,2,False,right,approach,neg,insect34_crop.jpg,4,30,1.0,295.0,2,2734.0276,103.0,30.0,DON'T EAT                                    EAT,2733.4023,2719.2905,2523.9832
297,2,False,right,approach,neg,insect15_crop.jpg,4,30,1.0,296.0,2,2736.4036,103.0,30.0,DON'T EAT                                    EAT,2735.4207,2719.2905,2523.9832
298,2,False,right,approach,neg,insect37_crop.jpg,4,30,1.0,297.0,2,2738.3835,103.0,30.0,DON'T EAT                                    EAT,2737.4385,2719.2905,2523.9832
299,2,True,right,avoid,neg,fungus15_crop.jpg,4,30,1.0,298.0,1,2740.5247,103.0,30.0,DON'T EAT                                    EAT,2739.457,2719.2905,2523.9832
300,2,False,right,approach,neg,insect3_crop.jpg,4,30,1.0,299.0,2,2742.6177,103.0,30.0,DON'T EAT                                    EAT,2741.4758,2719.2905,2523.9832
301,2,False,right,avoid,pos,meat26_crop.jpg,4,31,1.0,300.0,1,2759.9082,103.0,31.0,DON'T EAT                                    EAT,2758.2563,2754.236,2523.9832
302,2,False,right,avoid,pos,meat25_crop.jpg,4,31,1.0,301.0,--,--,103.0,31.0,DON'T EAT                                    EAT,2760.2747,2754.236,2523.9832
303,2,False,right,avoid,pos,meat13_crop.jpg,4,31,1.0,302.0,1,2762.3677,103.0,31.0,DON'T EAT                                    EAT,2762.2927,2754.236,2523.9832
304,2,True,right,approach,neg,insect7_crop.jpg,4,31,1.0,303.0,2,2765.022,103.0,31.0,DON'T EAT                                    EAT,2764.3113,2754.236,2523.9832
305,2,True,right,approach,pos,cake30_crop.jpg,4,31,1.0,304.0,2,2767.2332,103.0,31.0,DON'T EAT                                    EAT,2766.3296,2754.236,2523.9832
306,2,False,right,avoid,pos,meat8_crop.jpg,4,31,1.0,305.0,1,2769.966,103.0,31.0,DON'T EAT                                    EAT,2768.3481,2754.236,2523.9832
307,2,False,right,avoid,pos,meat1_crop.jpg,4,31,1.0,306.0,1,2771.522,103.0,31.0,DON'T EAT                                    EAT,2770.366,2754.236,2523.9832
308,2,False,right,avoid,pos,meat19_crop.jpg,4,31,1.0,307.0,1,2773.2532,103.0,31.0,DON'T EAT                                    EAT,2772.3845,2754.236,2523.9832
309,2,False,right,avoid,pos,meat2_crop.jpg,4,31,1.0,308.0,1,2775.7275,103.0,31.0,DON'T EAT                                    EAT,2774.403,2754.236,2523.9832
310,2,False,right,avoid,pos,meat23_crop.jpg,4,31,1.0,309.0,1,2777.1133,103.0,31.0,DON'T EAT                                    EAT,2776.4214,2754.236,2523.9832
311,2,True,right,avoid,neg,fungus6_crop.jpg,4,32,1.0,310.0,1,2794.4043,103.0,32.0,DON'T EAT                                    EAT,2793.302,2789.282,2523.9832
312,2,False,right,approach,pos,cake40_crop.jpg,4,32,1.0,311.0,2,2796.1877,103.0,32.0,DON'T EAT                                    EAT,2795.3203,2789.282,2523.9832
313,2,True,right,avoid,pos,meat40_crop.jpg,4,32,1.0,312.0,1,2799.1575,103.0,32.0,DON'T EAT                                    EAT,2797.3389,2789.282,2523.9832
314,2,False,right,approach,pos,cake37_crop.jpg,4,32,1.0,313.0,2,2800.2446,103.0,32.0,DON'T EAT                                    EAT,2799.357,2789.282,2523.9832
315,2,False,right,approach,pos,cake32_crop.jpg,4,32,1.0,314.0,2,2802.378,103.0,32.0,DON'T EAT                                    EAT,2801.3755,2789.282,2523.9832
316,2,False,right,approach,pos,cake17_crop.jpg,4,32,1.0,315.0,2,2804.468,103.0,32.0,DON'T EAT                                    EAT,2803.3938,2789.282,2523.9832
317,2,False,right,approach,pos,cake2_crop.jpg,4,32,1.0,316.0,2,2806.526,103.0,32.0,DON'T EAT                                    EAT,2805.4124,2789.282,2523.9832
318,2,False,right,approach,pos,cake25_crop.jpg,4,32,1.0,317.0,2,2808.1367,103.0,32.0,DON'T EAT                                    EAT,2807.43,2789.282,2523.9832
319,2,False,right,approach,pos,cake38_crop.jpg,4,32,1.0,318.0,2,2810.0857,103.0,32.0,DON'T EAT                                    EAT,2809.4487,2789.282,2523.9832
320,2,False,right,approach,pos,cake15_crop.jpg,4,32,1.0,319.0,2,2812.0803,103.0,32.0,DON'T EAT                                    EAT,2811.467,2789.282,2523.9832
