TrialNumber,n_block,catch,hand,mot,val,stim_name,run_number,num_block,ran,order,response,RT,Subject number,n_b,left_side_resp_label,trial_onset,blk_instr_onset,baseline_onset
1,3,False,right,approach,pos,cake13_crop.jpg,1,1,1.0,0.0,2,336.34854,55.0,1.0,DON'T EAT                                    EAT,334.73944,330.7193,318.77112
2,3,False,right,approach,pos,cake17_crop.jpg,1,1,1.0,1.0,2,337.6334,55.0,1.0,DON'T EAT                                    EAT,336.75772,330.7193,318.77112
3,3,False,right,approach,pos,cake20_crop.jpg,1,1,1.0,2.0,2,339.52835,55.0,1.0,DON'T EAT                                    EAT,338.776,330.7193,318.77112
4,3,True,right,avoid,neg,fungus34_crop.jpg,1,1,1.0,3.0,1,342.05035,55.0,1.0,DON'T EAT                                    EAT,340.79434,330.7193,318.77112
5,3,False,right,approach,pos,cake32_crop.jpg,1,1,1.0,4.0,2,343.71906,55.0,1.0,DON'T EAT                                    EAT,342.81552,330.7193,318.77112
6,3,False,right,approach,pos,cake40_crop.jpg,1,1,1.0,5.0,2,345.46774,55.0,1.0,DON'T EAT                                    EAT,344.83304,330.7193,318.77112
7,3,False,right,approach,pos,cake23_crop.jpg,1,1,1.0,6.0,2,347.69586,55.0,1.0,DON'T EAT                                    EAT,346.8494,330.7193,318.77112
8,3,True,right,avoid,pos,meat35_crop.jpg,1,1,1.0,7.0,1,349.9131,55.0,1.0,DON'T EAT                                    EAT,348.86783,330.7193,318.77112
9,3,False,right,approach,pos,cake12_crop.jpg,1,1,1.0,8.0,2,351.6688,55.0,1.0,DON'T EAT                                    EAT,350.88614,330.7193,318.77112
10,3,False,right,approach,pos,cake29_crop.jpg,1,1,1.0,9.0,2,353.62738,55.0,1.0,DON'T EAT                                    EAT,352.90445,330.7193,318.77112
11,1,False,right,avoid,pos,meat31_crop.jpg,1,2,1.0,10.0,1,370.9729,55.0,2.0,DON'T EAT                                    EAT,369.18463,365.16434,318.77112
12,1,True,right,approach,pos,cake37_crop.jpg,1,2,1.0,11.0,2,372.13226,55.0,2.0,DON'T EAT                                    EAT,371.20276,365.16434,318.77112
13,1,True,right,approach,neg,insect21_crop.jpg,1,2,1.0,12.0,2,374.2639,55.0,2.0,DON'T EAT                                    EAT,373.22107,365.16434,318.77112
14,1,False,right,avoid,pos,meat39_crop.jpg,1,2,1.0,13.0,1,376.2428,55.0,2.0,DON'T EAT                                    EAT,375.23978,365.16434,318.77112
15,1,False,right,avoid,pos,meat5_crop.jpg,1,2,1.0,14.0,1,378.1888,55.0,2.0,DON'T EAT                                    EAT,377.25803,365.16434,318.77112
16,1,False,right,avoid,pos,meat7_crop.jpg,1,2,1.0,15.0,1,380.13327,55.0,2.0,DON'T EAT                                    EAT,379.2764,365.16434,318.77112
17,1,False,right,avoid,pos,meat37_crop.jpg,1,2,1.0,16.0,1,382.04593,55.0,2.0,DON'T EAT                                    EAT,381.2947,365.16434,318.77112
18,1,False,right,avoid,pos,meat20_crop.jpg,1,2,1.0,17.0,1,384.1965,55.0,2.0,DON'T EAT                                    EAT,383.31274,365.16434,318.77112
19,1,False,right,avoid,pos,meat2_crop.jpg,1,2,1.0,18.0,1,386.13647,55.0,2.0,DON'T EAT                                    EAT,385.33142,365.16434,318.77112
20,1,False,right,avoid,pos,meat28_crop.jpg,1,2,1.0,19.0,1,388.1738,55.0,2.0,DON'T EAT                                    EAT,387.34988,365.16434,318.77112
21,3,False,right,avoid,pos,meat36_crop.jpg,1,3,1.0,20.0,1,405.3971,55.0,3.0,DON'T EAT                                    EAT,404.23026,400.21017,318.77112
22,3,True,right,approach,neg,insect37_crop.jpg,1,3,1.0,21.0,2,407.29697,55.0,3.0,DON'T EAT                                    EAT,406.2489,400.21017,318.77112
23,3,False,right,avoid,pos,meat4_crop.jpg,1,3,1.0,22.0,1,409.4752,55.0,3.0,DON'T EAT                                    EAT,408.2672,400.21017,318.77112
24,3,False,right,avoid,pos,meat23_crop.jpg,1,3,1.0,23.0,1,411.20636,55.0,3.0,DON'T EAT                                    EAT,410.2855,400.21017,318.77112
25,3,False,right,avoid,pos,meat9_crop.jpg,1,3,1.0,24.0,1,413.50644,55.0,3.0,DON'T EAT                                    EAT,412.30374,400.21017,318.77112
26,3,False,right,avoid,pos,meat8_crop.jpg,1,3,1.0,25.0,1,415.12854,55.0,3.0,DON'T EAT                                    EAT,414.32202,400.21017,318.77112
27,3,False,right,avoid,pos,meat19_crop.jpg,1,3,1.0,26.0,1,416.87756,55.0,3.0,DON'T EAT                                    EAT,416.3407,400.21017,318.77112
28,3,True,right,approach,pos,cake11_crop.jpg,1,3,1.0,27.0,2,419.0048,55.0,3.0,DON'T EAT                                    EAT,418.3588,400.21017,318.77112
29,3,False,right,avoid,pos,meat26_crop.jpg,1,3,1.0,28.0,1,420.914,55.0,3.0,DON'T EAT                                    EAT,420.37726,400.21017,318.77112
30,3,False,right,avoid,pos,meat34_crop.jpg,1,3,1.0,29.0,1,423.31705,55.0,3.0,DON'T EAT                                    EAT,422.39548,400.21017,318.77112
31,2,False,left,avoid,pos,meat33_crop.jpg,1,4,1.0,30.0,1,442.0113,55.0,4.0,DON'T EAT                                    EAT,440.91092,436.8909,318.77112
32,2,False,left,avoid,pos,meat28_crop.jpg,1,4,1.0,31.0,1,443.47662,55.0,4.0,DON'T EAT                                    EAT,442.92926,436.8909,318.77112
33,2,False,left,avoid,pos,meat22_crop.jpg,1,4,1.0,32.0,1,445.44318,55.0,4.0,DON'T EAT                                    EAT,444.94757,436.8909,318.77112
34,2,False,left,avoid,pos,meat30_crop.jpg,1,4,1.0,33.0,1,447.63098,55.0,4.0,DON'T EAT                                    EAT,446.96594,436.8909,318.77112
35,2,False,left,avoid,pos,meat29_crop.jpg,1,4,1.0,34.0,1,449.5149,55.0,4.0,DON'T EAT                                    EAT,448.98425,436.8909,318.77112
36,2,False,left,avoid,pos,meat26_crop.jpg,1,4,1.0,35.0,1,451.47122,55.0,4.0,DON'T EAT                                    EAT,451.00244,436.8909,318.77112
37,2,True,left,approach,pos,cake13_crop.jpg,1,4,1.0,36.0,2,453.83313,55.0,4.0,DON'T EAT                                    EAT,453.021,436.8909,318.77112
38,2,False,left,avoid,pos,meat3_crop.jpg,1,4,1.0,37.0,1,455.64825,55.0,4.0,DON'T EAT                                    EAT,455.0393,436.8909,318.77112
39,2,True,left,approach,neg,insect35_crop.jpg,1,4,1.0,38.0,2,457.72534,55.0,4.0,DON'T EAT                                    EAT,457.05722,436.8909,318.77112
40,2,False,left,avoid,pos,meat20_crop.jpg,1,4,1.0,39.0,1,459.67902,55.0,4.0,DON'T EAT                                    EAT,459.0759,436.8909,318.77112
41,0,True,right,avoid,neg,fungus23_crop.jpg,1,5,1.0,40.0,1,477.06128,55.0,5.0,DON'T EAT                                    EAT,475.58972,471.56934,318.77112
42,0,False,right,approach,neg,insect18_crop.jpg,1,5,1.0,41.0,2,478.33804,55.0,5.0,DON'T EAT                                    EAT,477.60803,471.56934,318.77112
43,0,False,right,approach,neg,insect8_crop.jpg,1,5,1.0,42.0,2,480.3541,55.0,5.0,DON'T EAT                                    EAT,479.62634,471.56934,318.77112
44,0,True,right,avoid,pos,meat17_crop.jpg,1,5,1.0,43.0,1,482.57263,55.0,5.0,DON'T EAT                                    EAT,481.64465,471.56934,318.77112
45,0,False,right,approach,neg,insect38_crop.jpg,1,5,1.0,44.0,2,484.28616,55.0,5.0,DON'T EAT                                    EAT,483.66245,471.56934,318.77112
46,0,False,right,approach,neg,insect13_crop.jpg,1,5,1.0,45.0,2,486.22382,55.0,5.0,DON'T EAT                                    EAT,485.6809,471.56934,318.77112
47,0,False,right,approach,neg,insect14_crop.jpg,1,5,1.0,46.0,2,488.1583,55.0,5.0,DON'T EAT                                    EAT,487.69983,471.56934,318.77112
48,0,False,right,approach,neg,insect27_crop.jpg,1,5,1.0,47.0,2,490.231,55.0,5.0,DON'T EAT                                    EAT,489.71762,471.56934,318.77112
49,0,False,right,approach,neg,insect29_crop.jpg,1,5,1.0,48.0,2,492.27267,55.0,5.0,DON'T EAT                                    EAT,491.73596,471.56934,318.77112
50,0,False,right,approach,neg,insect5_crop.jpg,1,5,1.0,49.0,2,494.29498,55.0,5.0,DON'T EAT                                    EAT,493.7544,471.56934,318.77112
51,2,False,left,approach,neg,insect9_crop.jpg,1,6,1.0,50.0,2,513.1913,55.0,6.0,DON'T EAT                                    EAT,512.2201,508.2003,318.77112
52,2,False,left,approach,neg,insect28_crop.jpg,1,6,1.0,51.0,2,514.8927,55.0,6.0,DON'T EAT                                    EAT,514.2379,508.2003,318.77112
53,2,False,left,approach,neg,insect40_crop.jpg,1,6,1.0,52.0,2,516.8513,55.0,6.0,DON'T EAT                                    EAT,516.2568,508.2003,318.77112
54,2,False,left,approach,neg,insect7_crop.jpg,1,6,1.0,53.0,2,518.7872,55.0,6.0,DON'T EAT                                    EAT,518.27515,508.2003,318.77112
55,2,False,left,approach,neg,insect38_crop.jpg,1,6,1.0,54.0,2,520.7386,55.0,6.0,DON'T EAT                                    EAT,520.2934,508.2003,318.77112
56,2,True,left,avoid,neg,fungus9_crop.jpg,1,6,1.0,55.0,1,523.1366,55.0,6.0,DON'T EAT                                    EAT,522.3116,508.2003,318.77112
57,2,False,left,approach,neg,insect36_crop.jpg,1,6,1.0,56.0,2,525.0164,55.0,6.0,DON'T EAT                                    EAT,524.32996,508.2003,318.77112
58,2,False,left,approach,neg,insect32_crop.jpg,1,6,1.0,57.0,2,526.87415,55.0,6.0,DON'T EAT                                    EAT,526.3486,508.2003,318.77112
59,2,True,left,avoid,pos,meat14_crop.jpg,1,6,1.0,58.0,1,529.1374,55.0,6.0,DON'T EAT                                    EAT,528.3669,508.2003,318.77112
60,2,False,left,approach,neg,insect37_crop.jpg,1,6,1.0,59.0,2,531.06244,55.0,6.0,DON'T EAT                                    EAT,530.385,508.2003,318.77112
61,0,False,right,avoid,neg,fungus14_crop.jpg,1,7,1.0,60.0,1,551.287,55.0,7.0,DON'T EAT                                    EAT,549.78436,545.7646,318.77112
62,0,False,right,avoid,neg,fungus3_crop.jpg,1,7,1.0,61.0,1,553.7401,55.0,7.0,DON'T EAT                                    EAT,551.80273,545.7646,318.77112
63,0,False,right,avoid,neg,fungus8_crop.jpg,1,7,1.0,62.0,1,554.9237,55.0,7.0,DON'T EAT                                    EAT,553.82086,545.7646,318.77112
64,0,False,right,avoid,neg,fungus25_crop.jpg,1,7,1.0,63.0,1,557.20123,55.0,7.0,DON'T EAT                                    EAT,555.8398,545.7646,318.77112
65,0,False,right,avoid,neg,fungus35_crop.jpg,1,7,1.0,64.0,1,558.7031,55.0,7.0,DON'T EAT                                    EAT,557.858,545.7646,318.77112
66,0,False,right,avoid,neg,fungus20_crop.jpg,1,7,1.0,65.0,1,560.7767,55.0,7.0,DON'T EAT                                    EAT,559.8763,545.7646,318.77112
67,0,False,right,avoid,neg,fungus13_crop.jpg,1,7,1.0,66.0,1,562.8546,55.0,7.0,DON'T EAT                                    EAT,561.89465,545.7646,318.77112
68,0,True,right,approach,neg,insect17_crop.jpg,1,7,1.0,67.0,2,564.7143,55.0,7.0,DON'T EAT                                    EAT,563.91254,545.7646,318.77112
69,0,True,right,approach,pos,cake9_crop.jpg,1,7,1.0,68.0,2,566.7259,55.0,7.0,DON'T EAT                                    EAT,565.9314,545.7646,318.77112
70,0,False,right,avoid,neg,fungus36_crop.jpg,1,7,1.0,69.0,1,568.81647,55.0,7.0,DON'T EAT                                    EAT,567.9498,545.7646,318.77112
71,3,False,left,approach,neg,insect2_crop.jpg,1,8,1.0,70.0,2,588.61224,55.0,8.0,DON'T EAT                                    EAT,587.68274,583.66235,318.77112
72,3,False,left,approach,neg,insect24_crop.jpg,1,8,1.0,71.0,2,590.2722,55.0,8.0,DON'T EAT                                    EAT,589.7011,583.66235,318.77112
73,3,True,left,avoid,neg,fungus36_crop.jpg,1,8,1.0,72.0,1,592.3607,55.0,8.0,DON'T EAT                                    EAT,591.7195,583.66235,318.77112
74,3,False,left,approach,neg,insect6_crop.jpg,1,8,1.0,73.0,2,594.35443,55.0,8.0,DON'T EAT                                    EAT,593.7372,583.66235,318.77112
75,3,False,left,approach,neg,insect15_crop.jpg,1,8,1.0,74.0,2,596.32544,55.0,8.0,DON'T EAT                                    EAT,595.7561,583.66235,318.77112
76,3,False,left,approach,neg,insect18_crop.jpg,1,8,1.0,75.0,2,598.22784,55.0,8.0,DON'T EAT                                    EAT,597.77496,583.66235,318.77112
77,3,False,left,approach,neg,insect20_crop.jpg,1,8,1.0,76.0,2,600.24603,55.0,8.0,DON'T EAT                                    EAT,599.79285,583.66235,318.77112
78,3,False,left,approach,neg,insect25_crop.jpg,1,8,1.0,77.0,2,602.3191,55.0,8.0,DON'T EAT                                    EAT,601.8112,583.66235,318.77112
79,3,False,left,approach,neg,insect27_crop.jpg,1,8,1.0,78.0,2,604.2307,55.0,8.0,DON'T EAT                                    EAT,603.8291,583.66235,318.77112
80,3,True,left,avoid,pos,meat35_crop.jpg,1,8,1.0,79.0,1,606.5653,55.0,8.0,DON'T EAT                                    EAT,605.84784,583.66235,318.77112
81,1,False,right,avoid,neg,fungus24_crop.jpg,2,9,1.0,80.0,1,747.3175,55.0,9.0,DON'T EAT                                    EAT,746.3979,742.3773,729.05817
82,1,False,right,avoid,neg,fungus22_crop.jpg,2,9,1.0,81.0,1,749.1436,55.0,9.0,DON'T EAT                                    EAT,748.41626,742.3773,729.05817
83,1,False,right,avoid,neg,fungus31_crop.jpg,2,9,1.0,82.0,1,751.2574,55.0,9.0,DON'T EAT                                    EAT,750.43463,742.3773,729.05817
84,1,False,right,avoid,neg,fungus7_crop.jpg,2,9,1.0,83.0,1,753.0532,55.0,9.0,DON'T EAT                                    EAT,752.45276,742.3773,729.05817
85,1,False,right,avoid,neg,fungus19_crop.jpg,2,9,1.0,84.0,1,755.06323,55.0,9.0,DON'T EAT                                    EAT,754.4712,742.3773,729.05817
86,1,False,right,avoid,neg,fungus6_crop.jpg,2,9,1.0,85.0,1,757.0704,55.0,9.0,DON'T EAT                                    EAT,756.4897,742.3773,729.05817
87,1,True,right,approach,pos,cake2_crop.jpg,2,9,1.0,86.0,2,759.4049,55.0,9.0,DON'T EAT                                    EAT,758.50793,742.3773,729.05817
88,1,True,right,approach,neg,insect19_crop.jpg,2,9,1.0,87.0,2,761.3828,55.0,9.0,DON'T EAT                                    EAT,760.5263,742.3773,729.05817
89,1,False,right,avoid,neg,fungus2_crop.jpg,2,9,1.0,88.0,1,763.4219,55.0,9.0,DON'T EAT                                    EAT,762.5446,742.3773,729.05817
90,1,False,right,avoid,neg,fungus39_crop.jpg,2,9,1.0,89.0,1,765.39655,55.0,9.0,DON'T EAT                                    EAT,764.56274,742.3773,729.05817
91,0,True,left,avoid,pos,meat10_crop.jpg,2,10,1.0,90.0,1,783.8955,55.0,10.0,DON'T EAT                                    EAT,782.8782,778.8581,729.05817
92,0,False,left,approach,neg,insect31_crop.jpg,2,10,1.0,91.0,2,785.666,55.0,10.0,DON'T EAT                                    EAT,784.8965,778.8581,729.05817
93,0,False,left,approach,neg,insect11_crop.jpg,2,10,1.0,92.0,2,787.62164,55.0,10.0,DON'T EAT                                    EAT,786.9149,778.8581,729.05817
94,0,False,left,approach,neg,insect4_crop.jpg,2,10,1.0,93.0,2,789.47784,55.0,10.0,DON'T EAT                                    EAT,788.9327,778.8581,729.05817
95,0,False,left,approach,neg,insect13_crop.jpg,2,10,1.0,94.0,2,791.4917,55.0,10.0,DON'T EAT                                    EAT,790.9515,778.8581,729.05817
96,0,False,left,approach,neg,insect5_crop.jpg,2,10,1.0,95.0,2,793.382,55.0,10.0,DON'T EAT                                    EAT,792.97,778.8581,729.05817
97,0,False,left,approach,neg,insect30_crop.jpg,2,10,1.0,96.0,2,795.47565,55.0,10.0,DON'T EAT                                    EAT,794.9883,778.8581,729.05817
98,0,False,left,approach,neg,insect16_crop.jpg,2,10,1.0,97.0,2,797.5033,55.0,10.0,DON'T EAT                                    EAT,797.00665,778.8581,729.05817
99,0,False,left,approach,neg,insect17_crop.jpg,2,10,1.0,98.0,2,799.44904,55.0,10.0,DON'T EAT                                    EAT,799.0249,778.8581,729.05817
100,0,True,left,avoid,neg,fungus7_crop.jpg,2,10,1.0,99.0,1,801.7074,55.0,10.0,DON'T EAT                                    EAT,801.0433,778.8581,729.05817
101,1,False,right,approach,neg,insect2_crop.jpg,2,11,1.0,100.0,2,821.1423,55.0,11.0,DON'T EAT                                    EAT,820.0424,816.02234,729.05817
102,1,True,right,avoid,neg,fungus37_crop.jpg,2,11,1.0,101.0,1,822.906,55.0,11.0,DON'T EAT                                    EAT,822.0608,816.02234,729.05817
103,1,False,right,approach,neg,insect22_crop.jpg,2,11,1.0,102.0,2,825.03827,55.0,11.0,DON'T EAT                                    EAT,824.07855,816.02234,729.05817
104,1,False,right,approach,neg,insect12_crop.jpg,2,11,1.0,103.0,2,826.73,55.0,11.0,DON'T EAT                                    EAT,826.0974,816.02234,729.05817
105,1,False,right,approach,neg,insect26_crop.jpg,2,11,1.0,104.0,2,828.97125,55.0,11.0,DON'T EAT                                    EAT,828.1158,816.02234,729.05817
106,1,True,right,avoid,pos,meat1_crop.jpg,2,11,1.0,105.0,1,830.8436,55.0,11.0,DON'T EAT                                    EAT,830.1341,816.02234,729.05817
107,1,False,right,approach,neg,insect28_crop.jpg,2,11,1.0,106.0,2,832.98535,55.0,11.0,DON'T EAT                                    EAT,832.15216,816.02234,729.05817
108,1,False,right,approach,neg,insect33_crop.jpg,2,11,1.0,107.0,2,834.9897,55.0,11.0,DON'T EAT                                    EAT,834.1704,816.02234,729.05817
109,1,False,right,approach,neg,insect3_crop.jpg,2,11,1.0,108.0,2,836.81433,55.0,11.0,DON'T EAT                                    EAT,836.1891,816.02234,729.05817
110,1,False,right,approach,neg,insect15_crop.jpg,2,11,1.0,109.0,2,838.6951,55.0,11.0,DON'T EAT                                    EAT,838.2076,816.02234,729.05817
111,2,False,left,approach,pos,cake17_crop.jpg,2,12,1.0,110.0,2,857.6084,55.0,12.0,DON'T EAT                                    EAT,856.68964,852.6695,729.05817
112,2,False,left,approach,pos,cake22_crop.jpg,2,12,1.0,111.0,2,859.3518,55.0,12.0,DON'T EAT                                    EAT,858.7078,852.6695,729.05817
113,2,False,left,approach,pos,cake31_crop.jpg,2,12,1.0,112.0,2,861.2641,55.0,12.0,DON'T EAT                                    EAT,860.7262,852.6695,729.05817
114,2,False,left,approach,pos,cake34_crop.jpg,2,12,1.0,113.0,2,863.369,55.0,12.0,DON'T EAT                                    EAT,862.74445,852.6695,729.05817
115,2,False,left,approach,pos,cake7_crop.jpg,2,12,1.0,114.0,2,865.8076,55.0,12.0,DON'T EAT                                    EAT,864.7627,852.6695,729.05817
116,2,True,left,avoid,pos,meat5_crop.jpg,2,12,1.0,115.0,1,867.5949,55.0,12.0,DON'T EAT                                    EAT,866.781,852.6695,729.05817
117,2,False,left,approach,pos,cake15_crop.jpg,2,12,1.0,116.0,2,869.64545,55.0,12.0,DON'T EAT                                    EAT,868.79956,852.6695,729.05817
118,2,True,left,avoid,neg,fungus23_crop.jpg,2,12,1.0,117.0,1,871.6113,55.0,12.0,DON'T EAT                                    EAT,870.81793,852.6695,729.05817
119,2,False,left,approach,pos,cake1_crop.jpg,2,12,1.0,118.0,2,873.7154,55.0,12.0,DON'T EAT                                    EAT,872.8362,852.6695,729.05817
120,2,False,left,approach,pos,cake23_crop.jpg,2,12,1.0,119.0,2,875.53394,55.0,12.0,DON'T EAT                                    EAT,874.8546,852.6695,729.05817
121,3,False,left,avoid,pos,meat2_crop.jpg,2,13,1.0,120.0,1,893.129,55.0,13.0,DON'T EAT                                    EAT,892.2189,888.1989,729.05817
122,3,True,left,approach,neg,insect34_crop.jpg,2,13,1.0,121.0,2,895.17224,55.0,13.0,DON'T EAT                                    EAT,894.23676,888.1989,729.05817
123,3,False,left,avoid,pos,meat25_crop.jpg,2,13,1.0,122.0,1,896.9743,55.0,13.0,DON'T EAT                                    EAT,896.2554,888.1989,729.05817
124,3,False,left,avoid,pos,meat18_crop.jpg,2,13,1.0,123.0,1,898.88544,55.0,13.0,DON'T EAT                                    EAT,898.27374,888.1989,729.05817
125,3,False,left,avoid,pos,meat4_crop.jpg,2,13,1.0,124.0,1,900.8737,55.0,13.0,DON'T EAT                                    EAT,900.29236,888.1989,729.05817
126,3,False,left,avoid,pos,meat11_crop.jpg,2,13,1.0,125.0,1,902.9451,55.0,13.0,DON'T EAT                                    EAT,902.3107,888.1989,729.05817
127,3,False,left,avoid,pos,meat16_crop.jpg,2,13,1.0,126.0,1,905.1792,55.0,13.0,DON'T EAT                                    EAT,904.3286,888.1989,729.05817
128,3,False,left,avoid,pos,meat17_crop.jpg,2,13,1.0,127.0,1,906.8545,55.0,13.0,DON'T EAT                                    EAT,906.34735,888.1989,729.05817
129,3,True,left,approach,pos,cake8_crop.jpg,2,13,1.0,128.0,1,908.8831,55.0,13.0,DON'T EAT                                    EAT,908.3657,888.1989,729.05817
130,3,False,left,avoid,pos,meat15_crop.jpg,2,13,1.0,129.0,1,911.1562,55.0,13.0,DON'T EAT                                    EAT,910.3837,888.1989,729.05817
131,1,False,left,approach,pos,cake12_crop.jpg,2,14,1.0,130.0,2,928.3388,55.0,14.0,DON'T EAT                                    EAT,927.31476,923.29456,729.05817
132,1,False,left,approach,pos,cake36_crop.jpg,2,14,1.0,131.0,2,929.9672,55.0,14.0,DON'T EAT                                    EAT,929.3332,923.29456,729.05817
133,1,False,left,approach,pos,cake6_crop.jpg,2,14,1.0,132.0,2,931.85846,55.0,14.0,DON'T EAT                                    EAT,931.3514,923.29456,729.05817
134,1,False,left,approach,pos,cake40_crop.jpg,2,14,1.0,133.0,2,934.0696,55.0,14.0,DON'T EAT                                    EAT,933.3698,923.29456,729.05817
135,1,False,left,approach,pos,cake37_crop.jpg,2,14,1.0,134.0,2,936.07697,55.0,14.0,DON'T EAT                                    EAT,935.38824,923.29456,729.05817
136,1,False,left,approach,pos,cake26_crop.jpg,2,14,1.0,135.0,2,938.0841,55.0,14.0,DON'T EAT                                    EAT,937.4062,923.29456,729.05817
137,1,True,left,avoid,pos,meat12_crop.jpg,2,14,1.0,136.0,1,940.19415,55.0,14.0,DON'T EAT                                    EAT,939.42487,923.29456,729.05817
138,1,True,left,avoid,neg,fungus14_crop.jpg,2,14,1.0,137.0,1,942.2364,55.0,14.0,DON'T EAT                                    EAT,941.44336,923.29456,729.05817
139,1,False,left,approach,pos,cake27_crop.jpg,2,14,1.0,138.0,2,944.0236,55.0,14.0,DON'T EAT                                    EAT,943.46136,923.29456,729.05817
140,1,False,left,approach,pos,cake28_crop.jpg,2,14,1.0,139.0,2,946.1041,55.0,14.0,DON'T EAT                                    EAT,945.48,923.29456,729.05817
141,3,False,right,approach,neg,insect36_crop.jpg,2,15,1.0,140.0,2,965.68176,55.0,15.0,DON'T EAT                                    EAT,964.5786,960.5591,729.05817
142,3,False,right,approach,neg,insect24_crop.jpg,2,15,1.0,141.0,2,967.2443,55.0,15.0,DON'T EAT                                    EAT,966.5974,960.5591,729.05817
143,3,False,right,approach,neg,insect30_crop.jpg,2,15,1.0,142.0,2,969.4178,55.0,15.0,DON'T EAT                                    EAT,968.61554,960.5591,729.05817
144,3,False,right,approach,neg,insect32_crop.jpg,2,15,1.0,143.0,2,971.20184,55.0,15.0,DON'T EAT                                    EAT,970.63354,960.5591,729.05817
145,3,False,right,approach,neg,insect40_crop.jpg,2,15,1.0,144.0,2,973.3945,55.0,15.0,DON'T EAT                                    EAT,972.65216,960.5591,729.05817
146,3,False,right,approach,neg,insect4_crop.jpg,2,15,1.0,145.0,2,975.37897,55.0,15.0,DON'T EAT                                    EAT,974.6708,960.5591,729.05817
147,3,True,right,avoid,pos,meat16_crop.jpg,2,15,1.0,146.0,1,977.4082,55.0,15.0,DON'T EAT                                    EAT,976.6891,960.5591,729.05817
148,3,False,right,approach,neg,insect31_crop.jpg,2,15,1.0,147.0,2,979.3212,55.0,15.0,DON'T EAT                                    EAT,978.70746,960.5591,729.05817
149,3,False,right,approach,neg,insect34_crop.jpg,2,15,1.0,148.0,2,981.3922,55.0,15.0,DON'T EAT                                    EAT,980.7258,960.5591,729.05817
150,3,True,right,avoid,neg,fungus1_crop.jpg,2,15,1.0,149.0,1,983.5254,55.0,15.0,DON'T EAT                                    EAT,982.74414,960.5591,729.05817
151,0,True,right,avoid,neg,fungus15_crop.jpg,2,16,1.0,150.0,1,999.7832,55.0,16.0,DON'T EAT                                    EAT,998.9743,994.954,729.05817
152,0,False,right,approach,pos,cake5_crop.jpg,2,16,1.0,151.0,2,1001.92267,55.0,16.0,DON'T EAT                                    EAT,1000.9926,994.954,729.05817
153,0,False,right,approach,pos,cake4_crop.jpg,2,16,1.0,152.0,2,1004.10364,55.0,16.0,DON'T EAT                                    EAT,1003.01105,994.954,729.05817
154,0,True,right,avoid,pos,meat6_crop.jpg,2,16,1.0,153.0,1,1005.8684,55.0,16.0,DON'T EAT                                    EAT,1005.0294,994.954,729.05817
155,0,False,right,approach,pos,cake35_crop.jpg,2,16,1.0,154.0,2,1007.9859,55.0,16.0,DON'T EAT                                    EAT,1007.0477,994.954,729.05817
156,0,False,right,approach,pos,cake24_crop.jpg,2,16,1.0,155.0,2,1009.7726,55.0,16.0,DON'T EAT                                    EAT,1009.06604,994.954,729.05817
157,0,False,right,approach,pos,cake19_crop.jpg,2,16,1.0,156.0,2,1011.98364,55.0,16.0,DON'T EAT                                    EAT,1011.0844,994.954,729.05817
158,0,False,right,approach,pos,cake22_crop.jpg,2,16,1.0,157.0,2,1013.86127,55.0,16.0,DON'T EAT                                    EAT,1013.1026,994.954,729.05817
159,0,False,right,approach,pos,cake15_crop.jpg,2,16,1.0,158.0,2,1015.8049,55.0,16.0,DON'T EAT                                    EAT,1015.1208,994.954,729.05817
160,0,False,right,approach,pos,cake38_crop.jpg,2,16,1.0,159.0,2,1017.93164,55.0,16.0,DON'T EAT                                    EAT,1017.1395,994.954,729.05817
161,1,False,left,avoid,pos,meat24_crop.jpg,3,17,1.0,160.0,1,1116.5205,55.0,17.0,DON'T EAT                                    EAT,1115.4877,1111.4678,1100.5781
162,1,False,left,avoid,pos,meat38_crop.jpg,3,17,1.0,161.0,1,1118.0332,55.0,17.0,DON'T EAT                                    EAT,1117.5061,1111.4678,1100.5781
163,1,False,left,avoid,pos,meat27_crop.jpg,3,17,1.0,162.0,1,1119.9987,55.0,17.0,DON'T EAT                                    EAT,1119.5244,1111.4678,1100.5781
164,1,False,left,avoid,pos,meat13_crop.jpg,3,17,1.0,163.0,1,1122.0498,55.0,17.0,DON'T EAT                                    EAT,1121.5426,1111.4678,1100.5781
165,1,True,left,approach,neg,insect39_crop.jpg,3,17,1.0,164.0,2,1124.364,55.0,17.0,DON'T EAT                                    EAT,1123.5612,1111.4678,1100.5781
166,1,True,left,approach,pos,cake24_crop.jpg,3,17,1.0,165.0,2,1126.4166,55.0,17.0,DON'T EAT                                    EAT,1125.5796,1111.4678,1100.5781
167,1,False,left,avoid,pos,meat31_crop.jpg,3,17,1.0,166.0,1,1128.2977,55.0,17.0,DON'T EAT                                    EAT,1127.5978,1111.4678,1100.5781
168,1,False,left,avoid,pos,meat19_crop.jpg,3,17,1.0,167.0,1,1130.2733,55.0,17.0,DON'T EAT                                    EAT,1129.6161,1111.4678,1100.5781
169,1,False,left,avoid,pos,meat34_crop.jpg,3,17,1.0,168.0,1,1132.429,55.0,17.0,DON'T EAT                                    EAT,1131.6345,1111.4678,1100.5781
170,1,False,left,avoid,pos,meat8_crop.jpg,3,17,1.0,169.0,1,1134.2712,55.0,17.0,DON'T EAT                                    EAT,1133.6526,1111.4678,1100.5781
171,0,True,right,approach,pos,cake7_crop.jpg,3,18,1.0,170.0,2,1153.0322,55.0,18.0,DON'T EAT                                    EAT,1152.1509,1148.1313,1100.5781
172,0,False,right,avoid,pos,meat22_crop.jpg,3,18,1.0,171.0,1,1155.3538,55.0,18.0,DON'T EAT                                    EAT,1154.1693,1148.1313,1100.5781
173,0,False,right,avoid,pos,meat30_crop.jpg,3,18,1.0,172.0,1,1156.9795,55.0,18.0,DON'T EAT                                    EAT,1156.1882,1148.1313,1100.5781
174,0,False,right,avoid,pos,meat40_crop.jpg,3,18,1.0,173.0,1,1158.9866,55.0,18.0,DON'T EAT                                    EAT,1158.2067,1148.1313,1100.5781
175,0,False,right,avoid,pos,meat27_crop.jpg,3,18,1.0,174.0,1,1160.9126,55.0,18.0,DON'T EAT                                    EAT,1160.2249,1148.1313,1100.5781
176,0,False,right,avoid,pos,meat14_crop.jpg,3,18,1.0,175.0,1,1162.8223,55.0,18.0,DON'T EAT                                    EAT,1162.2433,1148.1313,1100.5781
177,0,False,right,avoid,pos,meat29_crop.jpg,3,18,1.0,176.0,1,1164.8235,55.0,18.0,DON'T EAT                                    EAT,1164.2611,1148.1313,1100.5781
178,0,False,right,avoid,pos,meat25_crop.jpg,3,18,1.0,177.0,1,1167.0833,55.0,18.0,DON'T EAT                                    EAT,1166.2799,1148.1313,1100.5781
179,0,True,right,approach,neg,insect11_crop.jpg,3,18,1.0,178.0,2,1169.169,55.0,18.0,DON'T EAT                                    EAT,1168.2982,1148.1313,1100.5781
180,0,False,right,avoid,pos,meat10_crop.jpg,3,18,1.0,179.0,1,1171.2565,55.0,18.0,DON'T EAT                                    EAT,1170.3165,1148.1313,1100.5781
181,1,False,right,approach,pos,cake30_crop.jpg,3,19,1.0,180.0,2,1190.987,55.0,19.0,DON'T EAT                                    EAT,1189.5825,1185.5625,1100.5781
182,1,True,right,avoid,pos,meat24_crop.jpg,3,19,1.0,181.0,1,1192.309,55.0,19.0,DON'T EAT                                    EAT,1191.601,1185.5625,1100.5781
183,1,False,right,approach,pos,cake28_crop.jpg,3,19,1.0,182.0,2,1194.434,55.0,19.0,DON'T EAT                                    EAT,1193.6194,1185.5625,1100.5781
184,1,False,right,approach,pos,cake33_crop.jpg,3,19,1.0,183.0,2,1196.4707,55.0,19.0,DON'T EAT                                    EAT,1195.6376,1185.5625,1100.5781
185,1,False,right,approach,pos,cake16_crop.jpg,3,19,1.0,184.0,2,1198.3204,55.0,19.0,DON'T EAT                                    EAT,1197.6561,1185.5625,1100.5781
186,1,True,right,avoid,neg,fungus26_crop.jpg,3,19,1.0,185.0,1,1200.4872,55.0,19.0,DON'T EAT                                    EAT,1199.6742,1185.5625,1100.5781
187,1,False,right,approach,pos,cake18_crop.jpg,3,19,1.0,186.0,2,1202.5183,55.0,19.0,DON'T EAT                                    EAT,1201.6926,1185.5625,1100.5781
188,1,False,right,approach,pos,cake27_crop.jpg,3,19,1.0,187.0,2,1204.4026,55.0,19.0,DON'T EAT                                    EAT,1203.711,1185.5625,1100.5781
189,1,False,right,approach,pos,cake31_crop.jpg,3,19,1.0,188.0,2,1206.3213,55.0,19.0,DON'T EAT                                    EAT,1205.7294,1185.5625,1100.5781
190,1,False,right,approach,pos,cake36_crop.jpg,3,19,1.0,189.0,2,1208.277,55.0,19.0,DON'T EAT                                    EAT,1207.7477,1185.5625,1100.5781
191,1,False,left,approach,neg,insect8_crop.jpg,3,20,1.0,190.0,2,1228.1344,55.0,20.0,DON'T EAT                                    EAT,1227.3306,1223.3105,1100.5781
192,1,False,left,approach,neg,insect19_crop.jpg,3,20,1.0,191.0,2,1229.9445,55.0,20.0,DON'T EAT                                    EAT,1229.349,1223.3105,1100.5781
193,1,True,left,avoid,neg,fungus32_crop.jpg,3,20,1.0,192.0,1,1232.6257,55.0,20.0,DON'T EAT                                    EAT,1231.3673,1223.3105,1100.5781
194,1,False,left,approach,neg,insect23_crop.jpg,3,20,1.0,193.0,2,1234.0739,55.0,20.0,DON'T EAT                                    EAT,1233.3855,1223.3105,1100.5781
195,1,False,left,approach,neg,insect22_crop.jpg,3,20,1.0,194.0,2,1235.9331,55.0,20.0,DON'T EAT                                    EAT,1235.4034,1223.3105,1100.5781
196,1,False,left,approach,neg,insect33_crop.jpg,3,20,1.0,195.0,2,1238.0253,55.0,20.0,DON'T EAT                                    EAT,1237.4222,1223.3105,1100.5781
197,1,False,left,approach,neg,insect14_crop.jpg,3,20,1.0,196.0,2,1239.9774,55.0,20.0,DON'T EAT                                    EAT,1239.4408,1223.3105,1100.5781
198,1,False,left,approach,neg,insect29_crop.jpg,3,20,1.0,197.0,2,1242.1786,55.0,20.0,DON'T EAT                                    EAT,1241.4591,1223.3105,1100.5781
199,1,True,left,avoid,pos,meat40_crop.jpg,3,20,1.0,198.0,1,1244.2291,55.0,20.0,DON'T EAT                                    EAT,1243.4769,1223.3105,1100.5781
200,1,False,left,approach,neg,insect10_crop.jpg,3,20,1.0,199.0,2,1246.2684,55.0,20.0,DON'T EAT                                    EAT,1245.4957,1223.3105,1100.5781
201,2,False,right,approach,pos,cake34_crop.jpg,3,21,1.0,200.0,2,1265.1257,55.0,21.0,DON'T EAT                                    EAT,1263.4272,1259.4073,1100.5781
202,2,False,right,approach,pos,cake6_crop.jpg,3,21,1.0,201.0,2,1266.4692,55.0,21.0,DON'T EAT                                    EAT,1265.4456,1259.4073,1100.5781
203,2,False,right,approach,pos,cake8_crop.jpg,3,21,1.0,202.0,2,1268.2153,55.0,21.0,DON'T EAT                                    EAT,1267.464,1259.4073,1100.5781
204,2,False,right,approach,pos,cake21_crop.jpg,3,21,1.0,203.0,2,1270.2856,55.0,21.0,DON'T EAT                                    EAT,1269.4823,1259.4073,1100.5781
205,2,False,right,approach,pos,cake1_crop.jpg,3,21,1.0,204.0,2,1272.1351,55.0,21.0,DON'T EAT                                    EAT,1271.5006,1259.4073,1100.5781
206,2,False,right,approach,pos,cake39_crop.jpg,3,21,1.0,205.0,2,1274.1515,55.0,21.0,DON'T EAT                                    EAT,1273.5186,1259.4073,1100.5781
207,2,True,right,avoid,neg,fungus16_crop.jpg,3,21,1.0,206.0,1,1276.436,55.0,21.0,DON'T EAT                                    EAT,1275.5372,1259.4073,1100.5781
208,2,False,right,approach,pos,cake10_crop.jpg,3,21,1.0,207.0,2,1278.3895,55.0,21.0,DON'T EAT                                    EAT,1277.5557,1259.4073,1100.5781
209,2,False,right,approach,pos,cake14_crop.jpg,3,21,1.0,208.0,2,1280.2389,55.0,21.0,DON'T EAT                                    EAT,1279.574,1259.4073,1100.5781
210,2,True,right,avoid,pos,meat12_crop.jpg,3,21,1.0,209.0,1,1282.4049,55.0,21.0,DON'T EAT                                    EAT,1281.5924,1259.4073,1100.5781
211,0,True,left,approach,neg,insect26_crop.jpg,3,22,1.0,210.0,2,1298.4933,55.0,22.0,DON'T EAT                                    EAT,1297.689,1293.6688,1100.5781
212,0,False,left,avoid,pos,meat21_crop.jpg,3,22,1.0,211.0,1,1300.3497,55.0,22.0,DON'T EAT                                    EAT,1299.7074,1293.6688,1100.5781
213,0,False,left,avoid,pos,meat7_crop.jpg,3,22,1.0,212.0,1,1302.4045,55.0,22.0,DON'T EAT                                    EAT,1301.7257,1293.6688,1100.5781
214,0,False,left,avoid,pos,meat36_crop.jpg,3,22,1.0,213.0,1,1304.3586,55.0,22.0,DON'T EAT                                    EAT,1303.744,1293.6688,1100.5781
215,0,False,left,avoid,pos,meat1_crop.jpg,3,22,1.0,214.0,1,1306.6074,55.0,22.0,DON'T EAT                                    EAT,1305.7626,1293.6688,1100.5781
216,0,False,left,avoid,pos,meat6_crop.jpg,3,22,1.0,215.0,1,1308.3423,55.0,22.0,DON'T EAT                                    EAT,1307.7806,1293.6688,1100.5781
217,0,False,left,avoid,pos,meat39_crop.jpg,3,22,1.0,216.0,1,1310.4462,55.0,22.0,DON'T EAT                                    EAT,1309.7992,1293.6688,1100.5781
218,0,False,left,avoid,pos,meat23_crop.jpg,3,22,1.0,217.0,1,1312.378,55.0,22.0,DON'T EAT                                    EAT,1311.8174,1293.6688,1100.5781
219,0,True,left,approach,pos,cake33_crop.jpg,3,22,1.0,218.0,2,1314.8577,55.0,22.0,DON'T EAT                                    EAT,1313.8354,1293.6688,1100.5781
220,0,False,left,avoid,pos,meat37_crop.jpg,3,22,1.0,219.0,1,1316.785,55.0,22.0,DON'T EAT                                    EAT,1315.8539,1293.6688,1100.5781
221,3,False,left,avoid,neg,fungus31_crop.jpg,3,23,1.0,220.0,1,1333.2032,55.0,23.0,DON'T EAT                                    EAT,1332.4513,1328.431,1100.5781
222,3,False,left,avoid,neg,fungus34_crop.jpg,3,23,1.0,221.0,1,1335.1523,55.0,23.0,DON'T EAT                                    EAT,1334.469,1328.431,1100.5781
223,3,False,left,avoid,neg,fungus29_crop.jpg,3,23,1.0,222.0,1,1337.251,55.0,23.0,DON'T EAT                                    EAT,1336.4879,1328.431,1100.5781
224,3,True,left,approach,pos,cake35_crop.jpg,3,23,1.0,223.0,2,1339.4464,55.0,23.0,DON'T EAT                                    EAT,1338.5062,1328.431,1100.5781
225,3,False,left,avoid,neg,fungus10_crop.jpg,3,23,1.0,224.0,1,1341.2664,55.0,23.0,DON'T EAT                                    EAT,1340.5245,1328.431,1100.5781
226,3,False,left,avoid,neg,fungus39_crop.jpg,3,23,1.0,225.0,1,1343.2931,55.0,23.0,DON'T EAT                                    EAT,1342.5427,1328.431,1100.5781
227,3,False,left,avoid,neg,fungus13_crop.jpg,3,23,1.0,226.0,1,1345.2772,55.0,23.0,DON'T EAT                                    EAT,1344.5608,1328.431,1100.5781
228,3,False,left,avoid,neg,fungus12_crop.jpg,3,23,1.0,227.0,1,1347.3386,55.0,23.0,DON'T EAT                                    EAT,1346.5797,1328.431,1100.5781
229,3,False,left,avoid,neg,fungus4_crop.jpg,3,23,1.0,228.0,1,1349.2247,55.0,23.0,DON'T EAT                                    EAT,1348.598,1328.431,1100.5781
230,3,True,left,approach,neg,insect12_crop.jpg,3,23,1.0,229.0,2,1351.3878,55.0,23.0,DON'T EAT                                    EAT,1350.6163,1328.431,1100.5781
231,2,False,right,avoid,pos,meat11_crop.jpg,3,24,1.0,230.0,1,1370.8622,55.0,24.0,DON'T EAT                                    EAT,1370.1493,1366.1293,1100.5781
232,2,False,right,avoid,pos,meat18_crop.jpg,3,24,1.0,231.0,1,1372.7167,55.0,24.0,DON'T EAT                                    EAT,1372.1677,1366.1293,1100.5781
233,2,False,right,avoid,pos,meat32_crop.jpg,3,24,1.0,232.0,1,1374.8252,55.0,24.0,DON'T EAT                                    EAT,1374.1857,1366.1293,1100.5781
234,2,False,right,avoid,pos,meat33_crop.jpg,3,24,1.0,233.0,1,1376.742,55.0,24.0,DON'T EAT                                    EAT,1376.2042,1366.1293,1100.5781
235,2,True,right,approach,neg,insect10_crop.jpg,3,24,1.0,234.0,2,1378.9377,55.0,24.0,DON'T EAT                                    EAT,1378.2223,1366.1293,1100.5781
236,2,True,right,approach,pos,cake3_crop.jpg,3,24,1.0,235.0,2,1381.0415,55.0,24.0,DON'T EAT                                    EAT,1380.241,1366.1293,1100.5781
237,2,False,right,avoid,pos,meat15_crop.jpg,3,24,1.0,236.0,--,--,55.0,24.0,DON'T EAT                                    EAT,1382.2593,1366.1293,1100.5781
238,2,False,right,avoid,pos,meat3_crop.jpg,3,24,1.0,237.0,1,1384.6583,55.0,24.0,DON'T EAT                                    EAT,1384.2771,1366.1293,1100.5781
239,2,False,right,avoid,pos,meat38_crop.jpg,3,24,1.0,238.0,1,1387.0144,55.0,24.0,DON'T EAT                                    EAT,1386.2959,1366.1293,1100.5781
240,2,False,right,avoid,pos,meat13_crop.jpg,3,24,1.0,239.0,1,1388.9065,55.0,24.0,DON'T EAT                                    EAT,1388.3142,1366.1293,1100.5781
241,3,False,left,approach,pos,cake19_crop.jpg,4,25,1.0,240.0,2,1510.4153,55.0,25.0,DON'T EAT                                    EAT,1509.5483,1505.5281,1493.3862
242,3,False,left,approach,pos,cake32_crop.jpg,4,25,1.0,241.0,2,1512.4008,55.0,25.0,DON'T EAT                                    EAT,1511.5667,1505.5281,1493.3862
243,3,False,left,approach,pos,cake5_crop.jpg,4,25,1.0,242.0,2,1514.2627,55.0,25.0,DON'T EAT                                    EAT,1513.585,1505.5281,1493.3862
244,3,False,left,approach,pos,cake4_crop.jpg,4,25,1.0,243.0,2,1516.2227,55.0,25.0,DON'T EAT                                    EAT,1515.6028,1505.5281,1493.3862
245,3,False,left,approach,pos,cake21_crop.jpg,4,25,1.0,244.0,2,1518.2025,55.0,25.0,DON'T EAT                                    EAT,1517.6215,1505.5281,1493.3862
246,3,False,left,approach,pos,cake10_crop.jpg,4,25,1.0,245.0,2,1520.2855,55.0,25.0,DON'T EAT                                    EAT,1519.6401,1505.5281,1493.3862
247,3,True,left,avoid,pos,meat9_crop.jpg,4,25,1.0,246.0,1,1522.6654,55.0,25.0,DON'T EAT                                    EAT,1521.6586,1505.5281,1493.3862
248,3,False,left,approach,pos,cake20_crop.jpg,4,25,1.0,247.0,2,1524.4097,55.0,25.0,DON'T EAT                                    EAT,1523.6766,1505.5281,1493.3862
249,3,False,left,approach,pos,cake39_crop.jpg,4,25,1.0,248.0,2,1526.266,55.0,25.0,DON'T EAT                                    EAT,1525.6951,1505.5281,1493.3862
250,3,True,left,avoid,neg,fungus28_crop.jpg,4,25,1.0,249.0,1,1528.4525,55.0,25.0,DON'T EAT                                    EAT,1527.7133,1505.5281,1493.3862
251,2,False,right,avoid,neg,fungus12_crop.jpg,4,26,1.0,250.0,1,1548.0947,55.0,26.0,DON'T EAT                                    EAT,1547.1963,1543.1763,1493.3862
252,2,False,right,avoid,neg,fungus10_crop.jpg,4,26,1.0,251.0,1,1549.8684,55.0,26.0,DON'T EAT                                    EAT,1549.2146,1543.1763,1493.3862
253,2,False,right,avoid,neg,fungus5_crop.jpg,4,26,1.0,252.0,1,1551.9064,55.0,26.0,DON'T EAT                                    EAT,1551.2327,1543.1763,1493.3862
254,2,False,right,avoid,neg,fungus40_crop.jpg,4,26,1.0,253.0,1,1553.8942,55.0,26.0,DON'T EAT                                    EAT,1553.251,1543.1763,1493.3862
255,2,True,right,approach,pos,cake25_crop.jpg,4,26,1.0,254.0,2,1556.2361,55.0,26.0,DON'T EAT                                    EAT,1555.2697,1543.1763,1493.3862
256,2,False,right,avoid,neg,fungus21_crop.jpg,4,26,1.0,255.0,1,1558.0063,55.0,26.0,DON'T EAT                                    EAT,1557.288,1543.1763,1493.3862
257,2,False,right,avoid,neg,fungus29_crop.jpg,4,26,1.0,256.0,1,1559.9165,55.0,26.0,DON'T EAT                                    EAT,1559.3064,1543.1763,1493.3862
258,2,False,right,avoid,neg,fungus33_crop.jpg,4,26,1.0,257.0,1,1561.8945,55.0,26.0,DON'T EAT                                    EAT,1561.3246,1543.1763,1493.3862
259,2,False,right,avoid,neg,fungus4_crop.jpg,4,26,1.0,258.0,1,1563.9244,55.0,26.0,DON'T EAT                                    EAT,1563.3429,1543.1763,1493.3862
260,2,True,right,approach,neg,insect25_crop.jpg,4,26,1.0,259.0,2,1566.2498,55.0,26.0,DON'T EAT                                    EAT,1565.361,1543.1763,1493.3862
261,1,False,left,avoid,neg,fungus6_crop.jpg,4,27,1.0,260.0,1,1584.5483,55.0,27.0,DON'T EAT                                    EAT,1583.676,1579.6561,1493.3862
262,1,False,left,avoid,neg,fungus26_crop.jpg,4,27,1.0,261.0,1,1586.2344,55.0,27.0,DON'T EAT                                    EAT,1585.6948,1579.6561,1493.3862
263,1,False,left,avoid,neg,fungus15_crop.jpg,4,27,1.0,262.0,1,1588.3875,55.0,27.0,DON'T EAT                                    EAT,1587.713,1579.6561,1493.3862
264,1,True,left,approach,neg,insect1_crop.jpg,4,27,1.0,263.0,2,1590.5852,55.0,27.0,DON'T EAT                                    EAT,1589.7313,1579.6561,1493.3862
265,1,False,left,avoid,neg,fungus3_crop.jpg,4,27,1.0,264.0,1,1592.483,55.0,27.0,DON'T EAT                                    EAT,1591.75,1579.6561,1493.3862
266,1,False,left,avoid,neg,fungus19_crop.jpg,4,27,1.0,265.0,1,1594.5548,55.0,27.0,DON'T EAT                                    EAT,1593.7678,1579.6561,1493.3862
267,1,False,left,avoid,neg,fungus5_crop.jpg,4,27,1.0,266.0,1,1596.6322,55.0,27.0,DON'T EAT                                    EAT,1595.7865,1579.6561,1493.3862
268,1,True,left,approach,pos,cake2_crop.jpg,4,27,1.0,267.0,2,1598.7229,55.0,27.0,DON'T EAT                                    EAT,1597.8049,1579.6561,1493.3862
269,1,False,left,avoid,neg,fungus18_crop.jpg,4,27,1.0,268.0,1,1600.4652,55.0,27.0,DON'T EAT                                    EAT,1599.8234,1579.6561,1493.3862
270,1,False,left,avoid,neg,fungus8_crop.jpg,4,27,1.0,269.0,1,1602.542,55.0,27.0,DON'T EAT                                    EAT,1601.8414,1579.6561,1493.3862
271,0,True,left,approach,pos,cake14_crop.jpg,4,28,1.0,270.0,2,1622.6105,55.0,28.0,DON'T EAT                                    EAT,1621.7412,1617.7214,1493.3862
272,0,False,left,avoid,neg,fungus27_crop.jpg,4,28,1.0,271.0,1,1624.5271,55.0,28.0,DON'T EAT                                    EAT,1623.7598,1617.7214,1493.3862
273,0,False,left,avoid,neg,fungus21_crop.jpg,4,28,1.0,272.0,1,1626.3397,55.0,28.0,DON'T EAT                                    EAT,1625.7778,1617.7214,1493.3862
274,0,False,left,avoid,neg,fungus2_crop.jpg,4,28,1.0,273.0,1,1628.3762,55.0,28.0,DON'T EAT                                    EAT,1627.7965,1617.7214,1493.3862
275,0,False,left,avoid,neg,fungus1_crop.jpg,4,28,1.0,274.0,1,1630.3533,55.0,28.0,DON'T EAT                                    EAT,1629.8148,1617.7214,1493.3862
276,0,False,left,avoid,neg,fungus38_crop.jpg,4,28,1.0,275.0,1,1632.351,55.0,28.0,DON'T EAT                                    EAT,1631.833,1617.7214,1493.3862
277,0,False,left,avoid,neg,fungus25_crop.jpg,4,28,1.0,276.0,1,1634.3696,55.0,28.0,DON'T EAT                                    EAT,1633.8514,1617.7214,1493.3862
278,0,False,left,avoid,neg,fungus17_crop.jpg,4,28,1.0,277.0,1,1636.5751,55.0,28.0,DON'T EAT                                    EAT,1635.8699,1617.7214,1493.3862
279,0,True,left,approach,neg,insect21_crop.jpg,4,28,1.0,278.0,2,1638.7649,55.0,28.0,DON'T EAT                                    EAT,1637.888,1617.7214,1493.3862
280,0,False,left,avoid,neg,fungus37_crop.jpg,4,28,1.0,279.0,1,1640.6046,55.0,28.0,DON'T EAT                                    EAT,1639.9065,1617.7214,1493.3862
281,0,True,left,avoid,neg,fungus40_crop.jpg,4,29,1.0,280.0,1,1658.9976,55.0,29.0,DON'T EAT                                    EAT,1658.2382,1654.2185,1493.3862
282,0,False,left,approach,pos,cake29_crop.jpg,4,29,1.0,281.0,2,1661.1664,55.0,29.0,DON'T EAT                                    EAT,1660.2567,1654.2185,1493.3862
283,0,False,left,approach,pos,cake9_crop.jpg,4,29,1.0,282.0,2,1662.9341,55.0,29.0,DON'T EAT                                    EAT,1662.2751,1654.2185,1493.3862
284,0,False,left,approach,pos,cake16_crop.jpg,4,29,1.0,283.0,2,1664.8723,55.0,29.0,DON'T EAT                                    EAT,1664.2935,1654.2185,1493.3862
285,0,False,left,approach,pos,cake3_crop.jpg,4,29,1.0,284.0,2,1666.9642,55.0,29.0,DON'T EAT                                    EAT,1666.3115,1654.2185,1493.3862
286,0,False,left,approach,pos,cake25_crop.jpg,4,29,1.0,285.0,2,1668.8418,55.0,29.0,DON'T EAT                                    EAT,1668.3301,1654.2185,1493.3862
287,0,True,left,avoid,pos,meat32_crop.jpg,4,29,1.0,286.0,1,1671.2449,55.0,29.0,DON'T EAT                                    EAT,1670.3485,1654.2185,1493.3862
288,0,False,left,approach,pos,cake18_crop.jpg,4,29,1.0,287.0,2,1673.442,55.0,29.0,DON'T EAT                                    EAT,1672.3668,1654.2185,1493.3862
289,0,False,left,approach,pos,cake11_crop.jpg,4,29,1.0,288.0,2,1675.2177,55.0,29.0,DON'T EAT                                    EAT,1674.3851,1654.2185,1493.3862
290,0,False,left,approach,pos,cake30_crop.jpg,4,29,1.0,289.0,2,1677.2811,55.0,29.0,DON'T EAT                                    EAT,1676.4033,1654.2185,1493.3862
291,2,True,right,avoid,pos,meat21_crop.jpg,4,30,1.0,290.0,1,1694.724,55.0,30.0,DON'T EAT                                    EAT,1693.8514,1689.8312,1493.3862
292,2,False,right,approach,neg,insect1_crop.jpg,4,30,1.0,291.0,2,1696.6711,55.0,30.0,DON'T EAT                                    EAT,1695.8696,1689.8312,1493.3862
293,2,False,right,approach,neg,insect6_crop.jpg,4,30,1.0,292.0,2,1698.5764,55.0,30.0,DON'T EAT                                    EAT,1697.8878,1689.8312,1493.3862
294,2,False,right,approach,neg,insect35_crop.jpg,4,30,1.0,293.0,2,1700.6554,55.0,30.0,DON'T EAT                                    EAT,1699.9064,1689.8312,1493.3862
295,2,False,right,approach,neg,insect16_crop.jpg,4,30,1.0,294.0,2,1702.5328,55.0,30.0,DON'T EAT                                    EAT,1701.9247,1689.8312,1493.3862
296,2,False,right,approach,neg,insect9_crop.jpg,4,30,1.0,295.0,2,1704.5891,55.0,30.0,DON'T EAT                                    EAT,1703.9429,1689.8312,1493.3862
297,2,False,right,approach,neg,insect7_crop.jpg,4,30,1.0,296.0,2,1706.6467,55.0,30.0,DON'T EAT                                    EAT,1705.9614,1689.8312,1493.3862
298,2,True,right,avoid,neg,fungus28_crop.jpg,4,30,1.0,297.0,1,1708.8596,55.0,30.0,DON'T EAT                                    EAT,1707.9797,1689.8312,1493.3862
299,2,False,right,approach,neg,insect23_crop.jpg,4,30,1.0,298.0,2,1710.9941,55.0,30.0,DON'T EAT                                    EAT,1709.998,1689.8312,1493.3862
300,2,False,right,approach,neg,insect39_crop.jpg,4,30,1.0,299.0,2,1712.5636,55.0,30.0,DON'T EAT                                    EAT,1712.0165,1689.8312,1493.3862
301,3,False,right,avoid,neg,fungus30_crop.jpg,4,31,1.0,300.0,1,1731.7437,55.0,31.0,DON'T EAT                                    EAT,1730.9822,1726.9622,1493.3862
302,3,False,right,avoid,neg,fungus11_crop.jpg,4,31,1.0,301.0,1,1733.7216,55.0,31.0,DON'T EAT                                    EAT,1733.0006,1726.9622,1493.3862
303,3,False,right,avoid,neg,fungus27_crop.jpg,4,31,1.0,302.0,1,1735.5718,55.0,31.0,DON'T EAT                                    EAT,1735.0183,1726.9622,1493.3862
304,3,False,right,avoid,neg,fungus17_crop.jpg,4,31,1.0,303.0,1,1737.6934,55.0,31.0,DON'T EAT                                    EAT,1737.0369,1726.9622,1493.3862
305,3,False,right,avoid,neg,fungus18_crop.jpg,4,31,1.0,304.0,1,1739.6372,55.0,31.0,DON'T EAT                                    EAT,1739.0555,1726.9622,1493.3862
306,3,True,right,approach,pos,cake26_crop.jpg,4,31,1.0,305.0,2,1741.7781,55.0,31.0,DON'T EAT                                    EAT,1741.0736,1726.9622,1493.3862
307,3,False,right,avoid,neg,fungus38_crop.jpg,4,31,1.0,306.0,1,1743.6174,55.0,31.0,DON'T EAT                                    EAT,1743.0922,1726.9622,1493.3862
308,3,True,right,approach,neg,insect20_crop.jpg,4,31,1.0,307.0,2,1745.9476,55.0,31.0,DON'T EAT                                    EAT,1745.11,1726.9622,1493.3862
309,3,False,right,avoid,neg,fungus9_crop.jpg,4,31,1.0,308.0,1,1747.8903,55.0,31.0,DON'T EAT                                    EAT,1747.129,1726.9622,1493.3862
310,3,False,right,avoid,neg,fungus32_crop.jpg,4,31,1.0,309.0,1,1749.6975,55.0,31.0,DON'T EAT                                    EAT,1749.1472,1726.9622,1493.3862
311,2,True,left,approach,pos,cake38_crop.jpg,4,32,1.0,310.0,2,1766.477,55.0,32.0,DON'T EAT                                    EAT,1765.694,1761.6906,1493.3862
312,2,False,left,avoid,neg,fungus11_crop.jpg,4,32,1.0,311.0,1,1768.3768,55.0,32.0,DON'T EAT                                    EAT,1767.7123,1761.6906,1493.3862
313,2,False,left,avoid,neg,fungus30_crop.jpg,4,32,1.0,312.0,1,1770.3013,55.0,32.0,DON'T EAT                                    EAT,1769.7311,1761.6906,1493.3862
314,2,False,left,avoid,neg,fungus16_crop.jpg,4,32,1.0,313.0,1,1772.3541,55.0,32.0,DON'T EAT                                    EAT,1771.7494,1761.6906,1493.3862
315,2,False,left,avoid,neg,fungus22_crop.jpg,4,32,1.0,314.0,1,1774.381,55.0,32.0,DON'T EAT                                    EAT,1773.7677,1761.6906,1493.3862
316,2,False,left,avoid,neg,fungus20_crop.jpg,4,32,1.0,315.0,1,1776.5543,55.0,32.0,DON'T EAT                                    EAT,1775.786,1761.6906,1493.3862
317,2,False,left,avoid,neg,fungus24_crop.jpg,4,32,1.0,316.0,1,1778.3661,55.0,32.0,DON'T EAT                                    EAT,1777.8043,1761.6906,1493.3862
318,2,True,left,approach,neg,insect3_crop.jpg,4,32,1.0,317.0,2,1780.8346,55.0,32.0,DON'T EAT                                    EAT,1779.8228,1761.6906,1493.3862
319,2,False,left,avoid,neg,fungus35_crop.jpg,4,32,1.0,318.0,1,1782.5172,55.0,32.0,DON'T EAT                                    EAT,1781.841,1761.6906,1493.3862
320,2,False,left,avoid,neg,fungus33_crop.jpg,4,32,1.0,319.0,1,1784.8193,55.0,32.0,DON'T EAT                                    EAT,1783.8593,1761.6906,1493.3862
