subject,trial_number,n_block,catch,hand,mot,val,stim_name,run_number,num_block,ran,order,response,time_of_response,subject_number,left_side_resp_label,trial_onset,blk_instr_onset,baseline_onset,response_hand,response_cleaned,response_lat,response_lat_cleaned,response_meaning,response_meaning_cleaned,condition_mot,condition_val,condition,correct,correct_cleaned,rt
sub-KP,1,3,FALSE,right,avoid,pos,meat30_crop.jpg,1,1,TRUE,0,1,2391.5889,999,DON'T EAT                                    EAT,2390.19,2386.1694,2374.8484,left,1,left,left,not_eat,not_eat,avoid,pos,avoid-pos,1,1,1398.9000000003725
sub-KP,2,3,FALSE,right,avoid,pos,meat18_crop.jpg,1,1,TRUE,1,1,2392.9456,999,DON'T EAT                                    EAT,2392.208,2386.1694,2374.8484,left,1,left,left,not_eat,not_eat,avoid,pos,avoid-pos,1,1,737.6000000000931
sub-KP,3,3,FALSE,right,avoid,pos,meat33_crop.jpg,1,1,TRUE,2,1,2395.0813,999,DON'T EAT                                    EAT,2394.2266,2386.1694,2374.8484,left,1,left,left,not_eat,not_eat,avoid,pos,avoid-pos,1,1,854.6999999997206
sub-KP,4,3,FALSE,right,avoid,pos,meat29_crop.jpg,1,1,TRUE,3,1,2397.1436,999,DON'T EAT                                    EAT,2396.2478,2386.1694,2374.8484,left,1,left,left,not_eat,not_eat,avoid,pos,avoid-pos,1,1,895.7999999998137
sub-KP,5,3,FALSE,right,avoid,pos,meat21_crop.jpg,1,1,TRUE,4,1,2399.0981,999,DON'T EAT                                    EAT,2398.265,2386.1694,2374.8484,left,1,left,left,not_eat,not_eat,avoid,pos,avoid-pos,1,1,833.1000000000931
sub-KP,6,3,FALSE,right,avoid,pos,meat24_crop.jpg,1,1,TRUE,5,1,2401.0186,999,DON'T EAT                                    EAT,2400.2815,2386.1694,2374.8484,left,1,left,left,not_eat,not_eat,avoid,pos,avoid-pos,1,1,737.1000000000931
sub-KP,7,3,TRUE,right,approach,pos,cake13_crop.jpg,1,1,TRUE,6,--,NA,999,DON'T EAT                                    EAT,2402.2998,2386.1694,2374.8484,left,2,NA,right,no_response,eat,avoid,pos,avoid-pos,NA,1,NA
sub-KP,8,3,TRUE,right,approach,neg,insect20_crop.jpg,1,1,TRUE,7,1,2405.0334,999,DON'T EAT                                    EAT,2404.318,2386.1694,2374.8484,left,1,left,left,not_eat,not_eat,avoid,pos,avoid-pos,0,0,715.3999999999069
sub-KP,9,3,FALSE,right,avoid,pos,meat12_crop.jpg,1,1,TRUE,8,1,2407.0527,999,DON'T EAT                                    EAT,2406.3367,2386.1694,2374.8484,left,1,left,left,not_eat,not_eat,avoid,pos,avoid-pos,1,1,716.0000000004657
sub-KP,10,3,FALSE,right,avoid,pos,meat7_crop.jpg,1,1,TRUE,9,1,2409.0813,999,DON'T EAT                                    EAT,2408.355,2386.1694,2374.8484,left,1,left,left,not_eat,not_eat,avoid,pos,avoid-pos,1,1,726.2999999998137
sub-KP,11,2,FALSE,left,approach,pos,cake25_crop.jpg,1,2,TRUE,10,--,NA,999,DON'T EAT                                    EAT,2428.0212,2424.001,2374.8484,left,2,NA,right,no_response,eat,approach,pos,approach-pos,NA,1,NA
sub-KP,12,2,FALSE,left,approach,pos,cake37_crop.jpg,1,2,TRUE,11,--,NA,999,DON'T EAT                                    EAT,2430.0396,2424.001,2374.8484,left,2,NA,right,no_response,eat,approach,pos,approach-pos,NA,1,NA
sub-KP,13,2,TRUE,left,avoid,pos,meat39_crop.jpg,1,2,TRUE,12,1,2432.6482,999,DON'T EAT                                    EAT,2432.058,2424.001,2374.8484,left,1,left,left,not_eat,not_eat,approach,pos,approach-pos,1,1,590.2000000001863
sub-KP,14,2,FALSE,left,approach,pos,cake31_crop.jpg,1,2,TRUE,13,--,NA,999,DON'T EAT                                    EAT,2434.0764,2424.001,2374.8484,left,2,NA,right,no_response,eat,approach,pos,approach-pos,NA,1,NA
sub-KP,15,2,TRUE,left,avoid,neg,fungus16_crop.jpg,1,2,TRUE,14,--,NA,999,DON'T EAT                                    EAT,2436.0947,2424.001,2374.8484,left,2,NA,right,no_response,eat,approach,pos,approach-pos,NA,0,NA
sub-KP,16,2,FALSE,left,approach,pos,cake34_crop.jpg,1,2,TRUE,15,1,2439.0923,999,DON'T EAT                                    EAT,2438.113,2424.001,2374.8484,left,1,left,left,not_eat,not_eat,approach,pos,approach-pos,0,0,979.2999999998137
sub-KP,17,2,FALSE,left,approach,pos,cake20_crop.jpg,1,2,TRUE,16,--,NA,999,DON'T EAT                                    EAT,2440.1313,2424.001,2374.8484,left,2,NA,right,no_response,eat,approach,pos,approach-pos,NA,1,NA
sub-KP,18,2,FALSE,left,approach,pos,cake24_crop.jpg,1,2,TRUE,17,--,NA,999,DON'T EAT                                    EAT,2442.1497,2424.001,2374.8484,left,2,NA,right,no_response,eat,approach,pos,approach-pos,NA,1,NA
sub-KP,19,2,FALSE,left,approach,pos,cake11_crop.jpg,1,2,TRUE,18,--,NA,999,DON'T EAT                                    EAT,2444.168,2424.001,2374.8484,left,2,NA,right,no_response,eat,approach,pos,approach-pos,NA,1,NA
sub-KP,20,2,FALSE,left,approach,pos,cake36_crop.jpg,1,2,TRUE,19,--,NA,999,DON'T EAT                                    EAT,2446.1865,2424.001,2374.8484,left,2,NA,right,no_response,eat,approach,pos,approach-pos,NA,1,NA
sub-KP,21,0,FALSE,right,approach,neg,insect24_crop.jpg,1,3,TRUE,20,--,NA,999,DON'T EAT                                    EAT,2464.8853,2460.8655,2374.8484,left,2,NA,right,no_response,eat,approach,neg,approach-neg,NA,1,NA
sub-KP,22,0,TRUE,right,avoid,pos,meat20_crop.jpg,1,3,TRUE,21,1,2468.019,999,DON'T EAT                                    EAT,2466.9036,2460.8655,2374.8484,left,1,left,left,not_eat,not_eat,approach,neg,approach-neg,1,1,1115.3999999999069
sub-KP,23,0,FALSE,right,approach,neg,insect40_crop.jpg,1,3,TRUE,22,--,NA,999,DON'T EAT                                    EAT,2468.922,2460.8655,2374.8484,left,2,NA,right,no_response,eat,approach,neg,approach-neg,NA,1,NA
sub-KP,24,0,FALSE,right,approach,neg,insect12_crop.jpg,1,3,TRUE,23,--,NA,999,DON'T EAT                                    EAT,2470.9404,2460.8655,2374.8484,left,2,NA,right,no_response,eat,approach,neg,approach-neg,NA,1,NA
sub-KP,25,0,FALSE,right,approach,neg,insect6_crop.jpg,1,3,TRUE,24,--,NA,999,DON'T EAT                                    EAT,2472.9587,2460.8655,2374.8484,left,2,NA,right,no_response,eat,approach,neg,approach-neg,NA,1,NA
sub-KP,26,0,FALSE,right,approach,neg,insect1_crop.jpg,1,3,TRUE,25,--,NA,999,DON'T EAT                                    EAT,2474.9766,2460.8655,2374.8484,left,2,NA,right,no_response,eat,approach,neg,approach-neg,NA,1,NA
sub-KP,27,0,TRUE,right,avoid,neg,fungus2_crop.jpg,1,3,TRUE,26,1,2477.8792,999,DON'T EAT                                    EAT,2476.9954,2460.8655,2374.8484,left,1,left,left,not_eat,not_eat,approach,neg,approach-neg,1,1,883.7999999998137
sub-KP,28,0,FALSE,right,approach,neg,insect7_crop.jpg,1,3,TRUE,27,--,NA,999,DON'T EAT                                    EAT,2479.0137,2460.8655,2374.8484,left,2,NA,right,no_response,eat,approach,neg,approach-neg,NA,1,NA
sub-KP,29,0,FALSE,right,approach,neg,insect36_crop.jpg,1,3,TRUE,28,--,NA,999,DON'T EAT                                    EAT,2481.0322,2460.8655,2374.8484,left,2,NA,right,no_response,eat,approach,neg,approach-neg,NA,1,NA
sub-KP,30,0,FALSE,right,approach,neg,insect18_crop.jpg,1,3,TRUE,29,--,NA,999,DON'T EAT                                    EAT,2483.05,2460.8655,2374.8484,left,2,NA,right,no_response,eat,approach,neg,approach-neg,NA,1,NA
sub-KP,31,3,TRUE,right,avoid,pos,meat31_crop.jpg,1,4,TRUE,30,1,2501.6357,999,DON'T EAT                                    EAT,2500.3645,2496.3608,2374.8484,left,1,left,left,not_eat,not_eat,approach,neg,approach-neg,1,1,1271.1999999997206
sub-KP,32,3,FALSE,right,approach,neg,insect25_crop.jpg,1,4,TRUE,31,--,NA,999,DON'T EAT                                    EAT,2502.383,2496.3608,2374.8484,left,2,NA,right,no_response,eat,approach,neg,approach-neg,NA,1,NA
sub-KP,33,3,FALSE,right,approach,neg,insect34_crop.jpg,1,4,TRUE,32,--,NA,999,DON'T EAT                                    EAT,2504.4014,2496.3608,2374.8484,left,2,NA,right,no_response,eat,approach,neg,approach-neg,NA,1,NA
sub-KP,34,3,FALSE,right,approach,neg,insect14_crop.jpg,1,4,TRUE,33,--,NA,999,DON'T EAT                                    EAT,2506.4197,2496.3608,2374.8484,left,2,NA,right,no_response,eat,approach,neg,approach-neg,NA,1,NA
sub-KP,35,3,FALSE,right,approach,neg,insect9_crop.jpg,1,4,TRUE,34,--,NA,999,DON'T EAT                                    EAT,2508.438,2496.3608,2374.8484,left,2,NA,right,no_response,eat,approach,neg,approach-neg,NA,1,NA
sub-KP,36,3,FALSE,right,approach,neg,insect32_crop.jpg,1,4,TRUE,35,--,NA,999,DON'T EAT                                    EAT,2510.4565,2496.3608,2374.8484,left,2,NA,right,no_response,eat,approach,neg,approach-neg,NA,1,NA
sub-KP,37,3,FALSE,right,approach,neg,insect2_crop.jpg,1,4,TRUE,36,--,NA,999,DON'T EAT                                    EAT,2512.4746,2496.3608,2374.8484,left,2,NA,right,no_response,eat,approach,neg,approach-neg,NA,1,NA
sub-KP,38,3,TRUE,right,avoid,neg,fungus28_crop.jpg,1,4,TRUE,37,1,2516.2603,999,DON'T EAT                                    EAT,2514.4932,2496.3608,2374.8484,left,1,left,left,not_eat,not_eat,approach,neg,approach-neg,1,1,1767.1000000000931
sub-KP,39,3,FALSE,right,approach,neg,insect33_crop.jpg,1,4,TRUE,38,--,NA,999,DON'T EAT                                    EAT,2516.5115,2496.3608,2374.8484,left,2,NA,right,no_response,eat,approach,neg,approach-neg,NA,1,NA
sub-KP,40,3,FALSE,right,approach,neg,insect21_crop.jpg,1,4,TRUE,39,--,NA,999,DON'T EAT                                    EAT,2518.53,2496.3608,2374.8484,left,2,NA,right,no_response,eat,approach,neg,approach-neg,NA,1,NA
sub-KP,41,3,FALSE,right,avoid,neg,fungus20_crop.jpg,1,5,TRUE,40,1,2537.3418,999,DON'T EAT                                    EAT,2535.961,2531.941,2374.8484,left,1,left,left,not_eat,not_eat,avoid,neg,avoid-neg,1,1,1380.8000000002794
sub-KP,42,3,FALSE,right,avoid,neg,fungus38_crop.jpg,1,5,TRUE,41,1,2538.8208,999,DON'T EAT                                    EAT,2537.9795,2531.941,2374.8484,left,1,left,left,not_eat,not_eat,avoid,neg,avoid-neg,1,1,841.2999999998137
sub-KP,43,3,FALSE,right,avoid,neg,fungus21_crop.jpg,1,5,TRUE,42,1,2540.6182,999,DON'T EAT                                    EAT,2539.9976,2531.941,2374.8484,left,1,left,left,not_eat,not_eat,avoid,neg,avoid-neg,1,1,620.5999999996275
sub-KP,44,3,FALSE,right,avoid,neg,fungus35_crop.jpg,1,5,TRUE,43,1,2542.553,999,DON'T EAT                                    EAT,2542.016,2531.941,2374.8484,left,1,left,left,not_eat,not_eat,avoid,neg,avoid-neg,1,1,537
sub-KP,45,3,TRUE,right,approach,pos,cake5_crop.jpg,1,5,TRUE,44,--,NA,999,DON'T EAT                                    EAT,2544.0344,2531.941,2374.8484,left,2,NA,right,no_response,eat,avoid,neg,avoid-neg,NA,1,NA
sub-KP,46,3,FALSE,right,avoid,neg,fungus7_crop.jpg,1,5,TRUE,45,1,2546.6855,999,DON'T EAT                                    EAT,2546.0527,2531.941,2374.8484,left,1,left,left,not_eat,not_eat,avoid,neg,avoid-neg,1,1,632.7999999998137
sub-KP,47,3,FALSE,right,avoid,neg,fungus30_crop.jpg,1,5,TRUE,46,1,2548.9062,999,DON'T EAT                                    EAT,2548.0713,2531.941,2374.8484,left,1,left,left,not_eat,not_eat,avoid,neg,avoid-neg,1,1,834.8999999994412
sub-KP,48,3,FALSE,right,avoid,neg,fungus19_crop.jpg,1,5,TRUE,47,1,2550.8474,999,DON'T EAT                                    EAT,2550.089,2531.941,2374.8484,left,1,left,left,not_eat,not_eat,avoid,neg,avoid-neg,1,1,758.3999999999069
sub-KP,49,3,FALSE,right,avoid,neg,fungus9_crop.jpg,1,5,TRUE,48,1,2552.561,999,DON'T EAT                                    EAT,2552.1077,2531.941,2374.8484,left,1,left,left,not_eat,not_eat,avoid,neg,avoid-neg,1,1,453.29999999981374
sub-KP,50,3,TRUE,right,approach,neg,insect10_crop.jpg,1,5,TRUE,49,--,NA,999,DON'T EAT                                    EAT,2554.1262,2531.941,2374.8484,left,2,NA,right,no_response,eat,avoid,neg,avoid-neg,NA,1,NA
sub-KP,51,2,FALSE,left,avoid,neg,fungus18_crop.jpg,1,6,TRUE,50,1,2571.7017,999,DON'T EAT                                    EAT,2570.6062,2566.5867,2374.8484,left,1,left,left,not_eat,not_eat,avoid,neg,avoid-neg,1,1,1095.5
sub-KP,52,2,FALSE,left,avoid,neg,fungus31_crop.jpg,1,6,TRUE,51,1,2573.2456,999,DON'T EAT                                    EAT,2572.625,2566.5867,2374.8484,left,1,left,left,not_eat,not_eat,avoid,neg,avoid-neg,1,1,620.6000000000931
sub-KP,53,2,TRUE,left,approach,neg,insect30_crop.jpg,1,6,TRUE,52,1,2575.1309,999,DON'T EAT                                    EAT,2574.6433,2566.5867,2374.8484,left,1,left,left,not_eat,not_eat,avoid,neg,avoid-neg,0,0,487.59999999962747
sub-KP,54,2,FALSE,left,avoid,neg,fungus6_crop.jpg,1,6,TRUE,53,1,2577.358,999,DON'T EAT                                    EAT,2576.6616,2566.5867,2374.8484,left,1,left,left,not_eat,not_eat,avoid,neg,avoid-neg,1,1,696.3999999999069
sub-KP,55,2,FALSE,left,avoid,neg,fungus15_crop.jpg,1,6,TRUE,54,1,2579.3643,999,DON'T EAT                                    EAT,2578.68,2566.5867,2374.8484,left,1,left,left,not_eat,not_eat,avoid,neg,avoid-neg,1,1,684.3000000002794
sub-KP,56,2,FALSE,left,avoid,neg,fungus9_crop.jpg,1,6,TRUE,55,1,2581.1824,999,DON'T EAT                                    EAT,2580.6982,2566.5867,2374.8484,left,1,left,left,not_eat,not_eat,avoid,neg,avoid-neg,1,1,484.2000000006519
sub-KP,57,2,FALSE,left,avoid,neg,fungus2_crop.jpg,1,6,TRUE,56,1,2583.3174,999,DON'T EAT                                    EAT,2582.7166,2566.5867,2374.8484,left,1,left,left,not_eat,not_eat,avoid,neg,avoid-neg,1,1,600.7999999998137
sub-KP,58,2,TRUE,left,approach,pos,cake16_crop.jpg,1,6,TRUE,57,--,NA,999,DON'T EAT                                    EAT,2584.7349,2566.5867,2374.8484,left,2,NA,right,no_response,eat,avoid,neg,avoid-neg,NA,1,NA
sub-KP,59,2,FALSE,left,avoid,neg,fungus35_crop.jpg,1,6,TRUE,58,1,2587.3228,999,DON'T EAT                                    EAT,2586.7532,2566.5867,2374.8484,left,1,left,left,not_eat,not_eat,avoid,neg,avoid-neg,1,1,569.5999999996275
sub-KP,60,2,FALSE,left,avoid,neg,fungus27_crop.jpg,1,6,TRUE,59,1,2589.4355,999,DON'T EAT                                    EAT,2588.7715,2566.5867,2374.8484,left,1,left,left,not_eat,not_eat,avoid,neg,avoid-neg,1,1,664
sub-KP,61,1,FALSE,right,approach,pos,cake22_crop.jpg,1,7,TRUE,60,--,NA,999,DON'T EAT                                    EAT,2607.9543,2603.9338,2374.8484,left,2,NA,right,no_response,eat,approach,pos,approach-pos,NA,1,NA
sub-KP,62,1,FALSE,right,approach,pos,cake3_crop.jpg,1,7,TRUE,61,--,NA,999,DON'T EAT                                    EAT,2609.9727,2603.9338,2374.8484,left,2,NA,right,no_response,eat,approach,pos,approach-pos,NA,1,NA
sub-KP,63,1,FALSE,right,approach,pos,cake19_crop.jpg,1,7,TRUE,62,--,NA,999,DON'T EAT                                    EAT,2611.9907,2603.9338,2374.8484,left,2,NA,right,no_response,eat,approach,pos,approach-pos,NA,1,NA
sub-KP,64,1,FALSE,right,approach,pos,cake39_crop.jpg,1,7,TRUE,63,--,NA,999,DON'T EAT                                    EAT,2614.0093,2603.9338,2374.8484,left,2,NA,right,no_response,eat,approach,pos,approach-pos,NA,1,NA
sub-KP,65,1,FALSE,right,approach,pos,cake8_crop.jpg,1,7,TRUE,64,--,NA,999,DON'T EAT                                    EAT,2616.0276,2603.9338,2374.8484,left,2,NA,right,no_response,eat,approach,pos,approach-pos,NA,1,NA
sub-KP,66,1,FALSE,right,approach,pos,cake17_crop.jpg,1,7,TRUE,65,--,NA,999,DON'T EAT                                    EAT,2618.0461,2603.9338,2374.8484,left,2,NA,right,no_response,eat,approach,pos,approach-pos,NA,1,NA
sub-KP,67,1,TRUE,right,avoid,neg,fungus40_crop.jpg,1,7,TRUE,66,1,2620.7595,999,DON'T EAT                                    EAT,2620.0645,2603.9338,2374.8484,left,1,left,left,not_eat,not_eat,approach,pos,approach-pos,1,1,695
sub-KP,68,1,TRUE,right,avoid,pos,meat15_crop.jpg,1,7,TRUE,67,--,NA,999,DON'T EAT                                    EAT,2622.0828,2603.9338,2374.8484,left,2,NA,right,no_response,eat,approach,pos,approach-pos,NA,0,NA
sub-KP,69,1,FALSE,right,approach,pos,cake4_crop.jpg,1,7,TRUE,68,--,NA,999,DON'T EAT                                    EAT,2624.1008,2603.9338,2374.8484,left,2,NA,right,no_response,eat,approach,pos,approach-pos,NA,1,NA
sub-KP,70,1,FALSE,right,approach,pos,cake18_crop.jpg,1,7,TRUE,69,--,NA,999,DON'T EAT                                    EAT,2626.1194,2603.9338,2374.8484,left,2,NA,right,no_response,eat,approach,pos,approach-pos,NA,1,NA
sub-KP,71,1,FALSE,right,approach,neg,insect35_crop.jpg,1,8,TRUE,70,--,NA,999,DON'T EAT                                    EAT,2644.9517,2640.9316,2374.8484,left,2,NA,right,no_response,eat,approach,neg,approach-neg,NA,1,NA
sub-KP,72,1,FALSE,right,approach,neg,insect23_crop.jpg,1,8,TRUE,71,--,NA,999,DON'T EAT                                    EAT,2646.97,2640.9316,2374.8484,left,2,NA,right,no_response,eat,approach,neg,approach-neg,NA,1,NA
sub-KP,73,1,FALSE,right,approach,neg,insect26_crop.jpg,1,8,TRUE,72,--,NA,999,DON'T EAT                                    EAT,2648.9883,2640.9316,2374.8484,left,2,NA,right,no_response,eat,approach,neg,approach-neg,NA,1,NA
sub-KP,74,1,FALSE,right,approach,neg,insect3_crop.jpg,1,8,TRUE,73,--,NA,999,DON'T EAT                                    EAT,2651.0066,2640.9316,2374.8484,left,2,NA,right,no_response,eat,approach,neg,approach-neg,NA,1,NA
sub-KP,75,1,FALSE,right,approach,neg,insect8_crop.jpg,1,8,TRUE,74,--,NA,999,DON'T EAT                                    EAT,2653.0251,2640.9316,2374.8484,left,2,NA,right,no_response,eat,approach,neg,approach-neg,NA,1,NA
sub-KP,76,1,TRUE,right,avoid,pos,meat16_crop.jpg,1,8,TRUE,75,1,2655.831,999,DON'T EAT                                    EAT,2655.0435,2640.9316,2374.8484,left,1,left,left,not_eat,not_eat,approach,neg,approach-neg,1,1,787.5
sub-KP,77,1,FALSE,right,approach,neg,insect4_crop.jpg,1,8,TRUE,76,--,NA,999,DON'T EAT                                    EAT,2657.0618,2640.9316,2374.8484,left,2,NA,right,no_response,eat,approach,neg,approach-neg,NA,1,NA
sub-KP,78,1,TRUE,right,avoid,neg,fungus17_crop.jpg,1,8,TRUE,77,1,2659.8066,999,DON'T EAT                                    EAT,2659.08,2640.9316,2374.8484,left,1,left,left,not_eat,not_eat,approach,neg,approach-neg,1,1,726.6000000000931
sub-KP,79,1,FALSE,right,approach,neg,insect5_crop.jpg,1,8,TRUE,78,--,NA,999,DON'T EAT                                    EAT,2661.0984,2640.9316,2374.8484,left,2,NA,right,no_response,eat,approach,neg,approach-neg,NA,1,NA
sub-KP,80,1,FALSE,right,approach,neg,insect29_crop.jpg,1,8,TRUE,79,--,NA,999,DON'T EAT                                    EAT,2663.1167,2640.9316,2374.8484,left,2,NA,right,no_response,eat,approach,neg,approach-neg,NA,1,NA
sub-KP,81,2,FALSE,right,avoid,neg,fungus18_crop.jpg,2,9,TRUE,80,1,2772.534,999,DON'T EAT                                    EAT,2771.6404000000002,2767.6204,2753.6748,right,1,left,left,not_eat,not_eat,avoid,neg,avoid-neg,1,1,893.5999999996275
sub-KP,82,2,TRUE,right,approach,pos,cake35_crop.jpg,2,9,TRUE,81,--,NA,999,DON'T EAT                                    EAT,2773.6587,2767.6204,2753.6748,right,2,NA,right,no_response,eat,avoid,neg,avoid-neg,NA,1,NA
sub-KP,83,2,TRUE,right,approach,neg,insect11_crop.jpg,2,9,TRUE,82,--,NA,999,DON'T EAT                                    EAT,2775.6768,2767.6204,2753.6748,right,2,NA,right,no_response,eat,avoid,neg,avoid-neg,NA,1,NA
sub-KP,84,2,FALSE,right,avoid,neg,fungus37_crop.jpg,2,9,TRUE,83,1,2778.3813,999,DON'T EAT                                    EAT,2777.6953,2767.6204,2753.6748,right,1,left,left,not_eat,not_eat,avoid,neg,avoid-neg,1,1,686
sub-KP,85,2,FALSE,right,avoid,neg,fungus3_crop.jpg,2,9,TRUE,84,1,2781.0605,999,DON'T EAT                                    EAT,2779.7136,2767.6204,2753.6748,right,1,left,left,not_eat,not_eat,avoid,neg,avoid-neg,1,1,1346.8999999999069
sub-KP,86,2,FALSE,right,avoid,neg,fungus36_crop.jpg,2,9,TRUE,85,1,2782.3442,999,DON'T EAT                                    EAT,2781.732,2767.6204,2753.6748,right,1,left,left,not_eat,not_eat,avoid,neg,avoid-neg,1,1,612.2000000001863
sub-KP,87,2,FALSE,right,avoid,neg,fungus27_crop.jpg,2,9,TRUE,86,1,2784.2563,999,DON'T EAT                                    EAT,2783.7505,2767.6204,2753.6748,right,1,left,left,not_eat,not_eat,avoid,neg,avoid-neg,1,1,505.79999999981374
sub-KP,88,2,FALSE,right,avoid,neg,fungus5_crop.jpg,2,9,TRUE,87,1,2786.3074,999,DON'T EAT                                    EAT,2785.768,2767.6204,2753.6748,right,1,left,left,not_eat,not_eat,avoid,neg,avoid-neg,1,1,539.4000000003725
sub-KP,89,2,FALSE,right,avoid,neg,fungus4_crop.jpg,2,9,TRUE,88,1,2788.2283,999,DON'T EAT                                    EAT,2787.7869,2767.6204,2753.6748,right,1,left,left,not_eat,not_eat,avoid,neg,avoid-neg,1,1,441.40000000037253
sub-KP,90,2,FALSE,right,avoid,neg,fungus31_crop.jpg,2,9,TRUE,89,1,2790.2268,999,DON'T EAT                                    EAT,2789.8054,2767.6204,2753.6748,right,1,left,left,not_eat,not_eat,avoid,neg,avoid-neg,1,1,421.3999999994412
sub-KP,91,2,TRUE,left,approach,neg,insect27_crop.jpg,2,10,TRUE,90,--,NA,999,DON'T EAT                                    EAT,2807.7869,2803.7668,2753.6748,right,2,NA,right,no_response,eat,avoid,pos,avoid-pos,NA,1,NA
sub-KP,92,2,FALSE,left,avoid,pos,meat19_crop.jpg,2,10,TRUE,91,1,2810.5413,999,DON'T EAT                                    EAT,2809.8054,2803.7668,2753.6748,right,1,left,left,not_eat,not_eat,avoid,pos,avoid-pos,1,1,735.8999999994412
sub-KP,93,2,FALSE,left,avoid,pos,meat17_crop.jpg,2,10,TRUE,92,1,2812.8684,999,DON'T EAT                                    EAT,2811.8237,2803.7668,2753.6748,right,1,left,left,not_eat,not_eat,avoid,pos,avoid-pos,1,1,1044.7000000001863
sub-KP,94,2,FALSE,left,avoid,pos,meat26_crop.jpg,2,10,TRUE,93,1,2814.3892,999,DON'T EAT                                    EAT,2813.842,2803.7668,2753.6748,right,1,left,left,not_eat,not_eat,avoid,pos,avoid-pos,1,1,547.2000000001863
sub-KP,95,2,FALSE,left,avoid,pos,meat33_crop.jpg,2,10,TRUE,94,1,2816.294,999,DON'T EAT                                    EAT,2815.86,2803.7668,2753.6748,right,1,left,left,not_eat,not_eat,avoid,pos,avoid-pos,1,1,434
sub-KP,96,2,FALSE,left,avoid,pos,meat9_crop.jpg,2,10,TRUE,95,1,2818.331,999,DON'T EAT                                    EAT,2817.8787,2803.7668,2753.6748,right,1,left,left,not_eat,not_eat,avoid,pos,avoid-pos,1,1,452.29999999981374
sub-KP,97,2,FALSE,left,avoid,pos,meat5_crop.jpg,2,10,TRUE,96,1,2820.284,999,DON'T EAT                                    EAT,2819.897,2803.7668,2753.6748,right,1,left,left,not_eat,not_eat,avoid,pos,avoid-pos,1,1,387
sub-KP,98,2,FALSE,left,avoid,pos,meat15_crop.jpg,2,10,TRUE,97,1,2822.3274,999,DON'T EAT                                    EAT,2821.9155,2803.7668,2753.6748,right,1,left,left,not_eat,not_eat,avoid,pos,avoid-pos,1,1,411.89999999990687
sub-KP,99,2,FALSE,left,avoid,pos,meat21_crop.jpg,2,10,TRUE,98,--,NA,999,DON'T EAT                                    EAT,2823.9338,2803.7668,2753.6748,right,2,NA,right,no_response,eat,avoid,pos,avoid-pos,NA,0,NA
sub-KP,100,2,TRUE,left,approach,pos,cake6_crop.jpg,2,10,TRUE,99,--,NA,999,DON'T EAT                                    EAT,2825.9517,2803.7668,2753.6748,right,2,NA,right,no_response,eat,avoid,pos,avoid-pos,NA,1,NA
sub-KP,101,3,TRUE,left,approach,neg,insect21_crop.jpg,2,11,TRUE,100,--,NA,999,DON'T EAT                                    EAT,2845.0679,2841.0479,2753.6748,right,2,NA,right,no_response,eat,avoid,neg,avoid-neg,NA,1,NA
sub-KP,102,3,FALSE,left,avoid,neg,fungus33_crop.jpg,2,11,TRUE,101,--,NA,999,DON'T EAT                                    EAT,2847.0864,2841.0479,2753.6748,right,2,NA,right,no_response,eat,avoid,neg,avoid-neg,NA,0,NA
sub-KP,103,3,TRUE,left,approach,pos,cake35_crop.jpg,2,11,TRUE,102,--,NA,999,DON'T EAT                                    EAT,2849.1042,2841.0479,2753.6748,right,2,NA,right,no_response,eat,avoid,neg,avoid-neg,NA,1,NA
sub-KP,104,3,FALSE,left,avoid,neg,fungus32_crop.jpg,2,11,TRUE,103,--,NA,999,DON'T EAT                                    EAT,2851.1226,2841.0479,2753.6748,right,2,NA,right,no_response,eat,avoid,neg,avoid-neg,NA,0,NA
sub-KP,105,3,FALSE,left,avoid,neg,fungus10_crop.jpg,2,11,TRUE,104,1,2853.8574,999,DON'T EAT                                    EAT,2853.1414,2841.0479,2753.6748,right,1,left,left,not_eat,not_eat,avoid,neg,avoid-neg,1,1,716
sub-KP,106,3,FALSE,left,avoid,neg,fungus26_crop.jpg,2,11,TRUE,105,1,2855.935,999,DON'T EAT                                    EAT,2855.1597,2841.0479,2753.6748,right,1,left,left,not_eat,not_eat,avoid,neg,avoid-neg,1,1,775.2999999998137
sub-KP,107,3,FALSE,left,avoid,neg,fungus39_crop.jpg,2,11,TRUE,106,1,2857.823,999,DON'T EAT                                    EAT,2857.178,2841.0479,2753.6748,right,1,left,left,not_eat,not_eat,avoid,neg,avoid-neg,1,1,645
sub-KP,108,3,FALSE,left,avoid,neg,fungus12_crop.jpg,2,11,TRUE,107,1,2859.849,999,DON'T EAT                                    EAT,2859.1965,2841.0479,2753.6748,right,1,left,left,not_eat,not_eat,avoid,neg,avoid-neg,1,1,652.5
sub-KP,109,3,FALSE,left,avoid,neg,fungus19_crop.jpg,2,11,TRUE,108,1,2861.7603,999,DON'T EAT                                    EAT,2861.2148,2841.0479,2753.6748,right,1,left,left,not_eat,not_eat,avoid,neg,avoid-neg,1,1,545.4999999995343
sub-KP,110,3,FALSE,left,avoid,neg,fungus11_crop.jpg,2,11,TRUE,109,1,2863.748,999,DON'T EAT                                    EAT,2863.2332,2841.0479,2753.6748,right,1,left,left,not_eat,not_eat,avoid,neg,avoid-neg,1,1,514.7999999998137
sub-KP,111,1,TRUE,right,approach,pos,cake21_crop.jpg,2,12,TRUE,110,--,NA,999,DON'T EAT                                    EAT,2880.2805,2876.2603,2753.6748,right,2,NA,right,no_response,eat,avoid,pos,avoid-pos,NA,1,NA
sub-KP,112,1,FALSE,right,avoid,pos,meat32_crop.jpg,2,12,TRUE,111,1,2882.9766,999,DON'T EAT                                    EAT,2882.299,2876.2603,2753.6748,right,1,left,left,not_eat,not_eat,avoid,pos,avoid-pos,1,1,677.6000000000931
sub-KP,113,1,FALSE,right,avoid,pos,meat13_crop.jpg,2,12,TRUE,112,1,2884.9165,999,DON'T EAT                                    EAT,2884.3171,2876.2603,2753.6748,right,1,left,left,not_eat,not_eat,avoid,pos,avoid-pos,1,1,599.3999999999069
sub-KP,114,1,FALSE,right,avoid,pos,meat22_crop.jpg,2,12,TRUE,113,1,2886.8113,999,DON'T EAT                                    EAT,2886.3357,2876.2603,2753.6748,right,1,left,left,not_eat,not_eat,avoid,pos,avoid-pos,1,1,475.59999999962747
sub-KP,115,1,FALSE,right,avoid,pos,meat40_crop.jpg,2,12,TRUE,114,1,2889.0088,999,DON'T EAT                                    EAT,2888.354,2876.2603,2753.6748,right,1,left,left,not_eat,not_eat,avoid,pos,avoid-pos,1,1,654.8000000002794
sub-KP,116,1,FALSE,right,avoid,pos,meat35_crop.jpg,2,12,TRUE,115,1,2890.9204,999,DON'T EAT                                    EAT,2890.3723,2876.2603,2753.6748,right,1,left,left,not_eat,not_eat,avoid,pos,avoid-pos,1,1,548.1000000000931
sub-KP,117,1,FALSE,right,avoid,pos,meat19_crop.jpg,2,12,TRUE,116,1,2892.834,999,DON'T EAT                                    EAT,2892.3906,2876.2603,2753.6748,right,1,left,left,not_eat,not_eat,avoid,pos,avoid-pos,1,1,443.39999999990687
sub-KP,118,1,FALSE,right,avoid,pos,meat26_crop.jpg,2,12,TRUE,117,1,2894.872,999,DON'T EAT                                    EAT,2894.4092,2876.2603,2753.6748,right,1,left,left,not_eat,not_eat,avoid,pos,avoid-pos,1,1,462.79999999981374
sub-KP,119,1,FALSE,right,avoid,pos,meat37_crop.jpg,2,12,TRUE,118,1,2896.9773,999,DON'T EAT                                    EAT,2896.4272,2876.2603,2753.6748,right,1,left,left,not_eat,not_eat,avoid,pos,avoid-pos,1,1,550.0999999996275
sub-KP,120,1,TRUE,right,approach,neg,insect30_crop.jpg,2,12,TRUE,119,--,NA,999,DON'T EAT                                    EAT,2898.4458,2876.2603,2753.6748,right,2,NA,right,no_response,eat,avoid,pos,avoid-pos,NA,1,NA
sub-KP,121,2,FALSE,right,avoid,pos,meat6_crop.jpg,2,13,TRUE,120,1,2917.576,999,DON'T EAT                                    EAT,2916.711,2912.691,2753.6748,right,1,left,left,not_eat,not_eat,avoid,pos,avoid-pos,1,1,865
sub-KP,122,2,FALSE,right,avoid,pos,meat27_crop.jpg,2,13,TRUE,121,1,2919.2686,999,DON'T EAT                                    EAT,2918.7292,2912.691,2753.6748,right,1,left,left,not_eat,not_eat,avoid,pos,avoid-pos,1,1,539.3999999999069
sub-KP,123,2,TRUE,right,approach,pos,cake25_crop.jpg,2,13,TRUE,122,--,NA,999,DON'T EAT                                    EAT,2920.7476,2912.691,2753.6748,right,2,NA,right,no_response,eat,avoid,pos,avoid-pos,NA,1,NA
sub-KP,124,2,FALSE,right,avoid,pos,meat14_crop.jpg,2,13,TRUE,123,1,2923.4395,999,DON'T EAT                                    EAT,2922.766,2912.691,2753.6748,right,1,left,left,not_eat,not_eat,avoid,pos,avoid-pos,1,1,673.5
sub-KP,125,2,FALSE,right,avoid,pos,meat3_crop.jpg,2,13,TRUE,124,1,2925.3765,999,DON'T EAT                                    EAT,2924.7844,2912.691,2753.6748,right,1,left,left,not_eat,not_eat,avoid,pos,avoid-pos,1,1,592.1000000000931
sub-KP,126,2,FALSE,right,avoid,pos,meat4_crop.jpg,2,13,TRUE,125,1,2927.2974,999,DON'T EAT                                    EAT,2926.8027,2912.691,2753.6748,right,1,left,left,not_eat,not_eat,avoid,pos,avoid-pos,1,1,494.6999999997206
sub-KP,127,2,FALSE,right,avoid,pos,meat39_crop.jpg,2,13,TRUE,126,1,2929.3252,999,DON'T EAT                                    EAT,2928.821,2912.691,2753.6748,right,1,left,left,not_eat,not_eat,avoid,pos,avoid-pos,1,1,504.20000000018626
sub-KP,128,2,FALSE,right,avoid,pos,meat10_crop.jpg,2,13,TRUE,127,1,2931.431,999,DON'T EAT                                    EAT,2930.8394,2912.691,2753.6748,right,1,left,left,not_eat,not_eat,avoid,pos,avoid-pos,1,1,591.6000000000931
sub-KP,129,2,FALSE,right,avoid,pos,meat9_crop.jpg,2,13,TRUE,128,1,2933.3013,999,DON'T EAT                                    EAT,2932.8577,2912.691,2753.6748,right,1,left,left,not_eat,not_eat,avoid,pos,avoid-pos,1,1,443.60000000009313
sub-KP,130,2,TRUE,right,approach,neg,insect39_crop.jpg,2,13,TRUE,129,--,NA,999,DON'T EAT                                    EAT,2934.8762,2912.691,2753.6748,right,2,NA,right,no_response,eat,avoid,pos,avoid-pos,NA,1,NA
sub-KP,131,1,FALSE,left,avoid,neg,fungus36_crop.jpg,2,14,TRUE,130,1,2953.7703,999,DON'T EAT                                    EAT,2953.108,2949.088,2753.6748,right,1,left,left,not_eat,not_eat,avoid,neg,avoid-neg,1,1,662.3000000002794
sub-KP,132,1,FALSE,left,avoid,neg,fungus21_crop.jpg,2,14,TRUE,131,1,2955.6016,999,DON'T EAT                                    EAT,2955.1262,2949.088,2753.6748,right,1,left,left,not_eat,not_eat,avoid,neg,avoid-neg,1,1,475.39999999990687
sub-KP,133,1,FALSE,left,avoid,neg,fungus23_crop.jpg,2,14,TRUE,132,1,2957.6194,999,DON'T EAT                                    EAT,2957.1445,2949.088,2753.6748,right,1,left,left,not_eat,not_eat,avoid,neg,avoid-neg,1,1,474.89999999990687
sub-KP,134,1,TRUE,left,approach,neg,insect15_crop.jpg,2,14,TRUE,133,--,NA,999,DON'T EAT                                    EAT,2959.1628,2949.088,2753.6748,right,2,NA,right,no_response,eat,avoid,neg,avoid-neg,NA,1,NA
sub-KP,135,1,TRUE,left,approach,pos,cake22_crop.jpg,2,14,TRUE,134,1,2961.6956,999,DON'T EAT                                    EAT,2961.1812,2949.088,2753.6748,right,1,left,left,not_eat,not_eat,avoid,neg,avoid-neg,0,0,514.3999999999069
sub-KP,136,1,FALSE,left,avoid,neg,fungus34_crop.jpg,2,14,TRUE,135,1,2963.8213,999,DON'T EAT                                    EAT,2963.1995,2949.088,2753.6748,right,1,left,left,not_eat,not_eat,avoid,neg,avoid-neg,1,1,621.8000000002794
sub-KP,137,1,FALSE,left,avoid,neg,fungus22_crop.jpg,2,14,TRUE,136,1,2965.8418,999,DON'T EAT                                    EAT,2965.218,2949.088,2753.6748,right,1,left,left,not_eat,not_eat,avoid,neg,avoid-neg,1,1,623.8000000002794
sub-KP,138,1,FALSE,left,avoid,neg,fungus14_crop.jpg,2,14,TRUE,137,1,2967.8901,999,DON'T EAT                                    EAT,2967.236,2949.088,2753.6748,right,1,left,left,not_eat,not_eat,avoid,neg,avoid-neg,1,1,654.1000000000931
sub-KP,139,1,FALSE,left,avoid,neg,fungus29_crop.jpg,2,14,TRUE,138,1,2969.7073,999,DON'T EAT                                    EAT,2969.2546,2949.088,2753.6748,right,1,left,left,not_eat,not_eat,avoid,neg,avoid-neg,1,1,452.6999999997206
sub-KP,140,1,FALSE,left,avoid,neg,fungus8_crop.jpg,2,14,TRUE,139,1,2971.938,999,DON'T EAT                                    EAT,2971.273,2949.088,2753.6748,right,1,left,left,not_eat,not_eat,avoid,neg,avoid-neg,1,1,665
sub-KP,141,1,FALSE,left,avoid,pos,meat18_crop.jpg,2,15,TRUE,140,1,2992.057,999,DON'T EAT                                    EAT,2990.739,2986.719,2753.6748,right,1,left,left,not_eat,not_eat,avoid,pos,avoid-pos,1,1,1318
sub-KP,142,1,FALSE,left,avoid,pos,meat38_crop.jpg,2,15,TRUE,141,1,2993.314,999,DON'T EAT                                    EAT,2992.7576,2986.719,2753.6748,right,1,left,left,not_eat,not_eat,avoid,pos,avoid-pos,1,1,556.3999999999069
sub-KP,143,1,FALSE,left,avoid,pos,meat11_crop.jpg,2,15,TRUE,142,1,2995.2407,999,DON'T EAT                                    EAT,2994.7761,2986.719,2753.6748,right,1,left,left,not_eat,not_eat,avoid,pos,avoid-pos,1,1,464.59999999962747
sub-KP,144,1,FALSE,left,avoid,pos,meat28_crop.jpg,2,15,TRUE,143,1,2997.347,999,DON'T EAT                                    EAT,2996.7942,2986.719,2753.6748,right,1,left,left,not_eat,not_eat,avoid,pos,avoid-pos,1,1,552.8000000002794
sub-KP,145,1,TRUE,left,approach,neg,insect8_crop.jpg,2,15,TRUE,144,--,NA,999,DON'T EAT                                    EAT,2998.8125,2986.719,2753.6748,right,2,NA,right,no_response,eat,avoid,pos,avoid-pos,NA,1,NA
sub-KP,146,1,TRUE,left,approach,pos,cake5_crop.jpg,2,15,TRUE,145,--,NA,999,DON'T EAT                                    EAT,3000.831,2986.719,2753.6748,right,2,NA,right,no_response,eat,avoid,pos,avoid-pos,NA,1,NA
sub-KP,147,1,FALSE,left,avoid,pos,meat14_crop.jpg,2,15,TRUE,146,1,3003.6165,999,DON'T EAT                                    EAT,3002.849,2986.719,2753.6748,right,1,left,left,not_eat,not_eat,avoid,pos,avoid-pos,1,1,767.5
sub-KP,148,1,FALSE,left,avoid,pos,meat20_crop.jpg,2,15,TRUE,147,1,3005.406,999,DON'T EAT                                    EAT,3004.8674,2986.719,2753.6748,right,1,left,left,not_eat,not_eat,avoid,pos,avoid-pos,1,1,538.6000000000931
sub-KP,149,1,FALSE,left,avoid,pos,meat31_crop.jpg,2,15,TRUE,148,1,3007.4644,999,DON'T EAT                                    EAT,3006.886,2986.719,2753.6748,right,1,left,left,not_eat,not_eat,avoid,pos,avoid-pos,1,1,578.3999999999069
sub-KP,150,1,FALSE,left,avoid,pos,meat36_crop.jpg,2,15,TRUE,149,1,3009.3674,999,DON'T EAT                                    EAT,3008.9043,2986.719,2753.6748,right,1,left,left,not_eat,not_eat,avoid,pos,avoid-pos,1,1,463.09999999962747
sub-KP,151,3,TRUE,right,avoid,pos,meat11_crop.jpg,2,16,TRUE,150,1,3029.0134,999,DON'T EAT                                    EAT,3028.3203,3024.3,2753.6748,right,1,left,left,not_eat,not_eat,approach,pos,approach-pos,1,1,693.1000000000931
sub-KP,152,3,FALSE,right,approach,pos,cake37_crop.jpg,2,16,TRUE,151,1,3030.7693,999,DON'T EAT                                    EAT,3030.3386,3024.3,2753.6748,right,1,left,left,not_eat,not_eat,approach,pos,approach-pos,0,0,430.6999999997206
sub-KP,153,3,FALSE,right,approach,pos,cake20_crop.jpg,2,16,TRUE,152,--,NA,999,DON'T EAT                                    EAT,3032.357,3024.3,2753.6748,right,2,NA,right,no_response,eat,approach,pos,approach-pos,NA,1,NA
sub-KP,154,3,FALSE,right,approach,pos,cake23_crop.jpg,2,16,TRUE,153,--,NA,999,DON'T EAT                                    EAT,3034.3755,3024.3,2753.6748,right,2,NA,right,no_response,eat,approach,pos,approach-pos,NA,1,NA
sub-KP,155,3,FALSE,right,approach,pos,cake14_crop.jpg,2,16,TRUE,154,--,NA,999,DON'T EAT                                    EAT,3036.3938,3024.3,2753.6748,right,2,NA,right,no_response,eat,approach,pos,approach-pos,NA,1,NA
sub-KP,156,3,FALSE,right,approach,pos,cake24_crop.jpg,2,16,TRUE,155,--,NA,999,DON'T EAT                                    EAT,3038.412,3024.3,2753.6748,right,2,NA,right,no_response,eat,approach,pos,approach-pos,NA,1,NA
sub-KP,157,3,FALSE,right,approach,pos,cake15_crop.jpg,2,16,TRUE,156,--,NA,999,DON'T EAT                                    EAT,3040.4304,3024.3,2753.6748,right,2,NA,right,no_response,eat,approach,pos,approach-pos,NA,1,NA
sub-KP,158,3,TRUE,right,avoid,neg,fungus23_crop.jpg,2,16,TRUE,157,1,3043.1387,999,DON'T EAT                                    EAT,3042.449,3024.3,2753.6748,right,1,left,left,not_eat,not_eat,approach,pos,approach-pos,1,1,689.7000000001863
sub-KP,159,3,FALSE,right,approach,pos,cake31_crop.jpg,2,16,TRUE,158,--,NA,999,DON'T EAT                                    EAT,3044.4666,3024.3,2753.6748,right,2,NA,right,no_response,eat,approach,pos,approach-pos,NA,1,NA
sub-KP,160,3,FALSE,right,approach,pos,cake38_crop.jpg,2,16,TRUE,159,--,NA,999,DON'T EAT                                    EAT,3046.4849,3024.3,2753.6748,right,2,NA,right,no_response,eat,approach,pos,approach-pos,NA,1,NA
sub-KP,161,1,FALSE,right,avoid,neg,fungus13_crop.jpg,3,17,TRUE,160,1,3137.562,999,DON'T EAT                                    EAT,3136.494,3132.4736,3118.5173,left,1,left,left,not_eat,not_eat,avoid,neg,avoid-neg,1,1,1068
sub-KP,162,1,FALSE,right,avoid,neg,fungus32_crop.jpg,3,17,TRUE,161,--,NA,999,DON'T EAT                                    EAT,3138.512,3132.4736,3118.5173,left,2,NA,right,no_response,eat,avoid,neg,avoid-neg,NA,0,NA
sub-KP,163,1,FALSE,right,avoid,neg,fungus16_crop.jpg,3,17,TRUE,162,1,3141.1013,999,DON'T EAT                                    EAT,3140.5303,3132.4736,3118.5173,left,1,left,left,not_eat,not_eat,avoid,neg,avoid-neg,1,1,571
sub-KP,164,1,FALSE,right,avoid,neg,fungus12_crop.jpg,3,17,TRUE,163,1,3143.0105,999,DON'T EAT                                    EAT,3142.5486,3132.4736,3118.5173,left,1,left,left,not_eat,not_eat,avoid,neg,avoid-neg,1,1,461.89999999990687
sub-KP,165,1,FALSE,right,avoid,neg,fungus26_crop.jpg,3,17,TRUE,164,1,3144.9756,999,DON'T EAT                                    EAT,3144.5667,3132.4736,3118.5173,left,1,left,left,not_eat,not_eat,avoid,neg,avoid-neg,1,1,408.90000000037253
sub-KP,166,1,FALSE,right,avoid,neg,fungus15_crop.jpg,3,17,TRUE,165,1,3147.1443,999,DON'T EAT                                    EAT,3146.5854,3132.4736,3118.5173,left,1,left,left,not_eat,not_eat,avoid,neg,avoid-neg,1,1,558.8999999999069
sub-KP,167,1,TRUE,right,approach,pos,cake2_crop.jpg,3,17,TRUE,166,--,NA,999,DON'T EAT                                    EAT,3148.6038,3132.4736,3118.5173,left,2,NA,right,no_response,eat,avoid,neg,avoid-neg,NA,1,NA
sub-KP,168,1,FALSE,right,avoid,neg,fungus6_crop.jpg,3,17,TRUE,167,1,3151.244,999,DON'T EAT                                    EAT,3150.622,3132.4736,3118.5173,left,1,left,left,not_eat,not_eat,avoid,neg,avoid-neg,1,1,622
sub-KP,169,1,FALSE,right,avoid,neg,fungus33_crop.jpg,3,17,TRUE,168,1,3153.4724,999,DON'T EAT                                    EAT,3152.6404000000002,3132.4736,3118.5173,left,1,left,left,not_eat,not_eat,avoid,neg,avoid-neg,1,1,831.9999999995343
sub-KP,170,1,TRUE,right,approach,neg,insect16_crop.jpg,3,17,TRUE,169,--,NA,999,DON'T EAT                                    EAT,3154.6587,3132.4736,3118.5173,left,2,NA,right,no_response,eat,avoid,neg,avoid-neg,NA,1,NA
sub-KP,171,0,FALSE,right,avoid,neg,fungus8_crop.jpg,3,18,TRUE,170,1,3174.215,999,DON'T EAT                                    EAT,3173.5078,3169.4878,3118.5173,left,1,left,left,not_eat,not_eat,avoid,neg,avoid-neg,1,1,707.2000000001863
sub-KP,172,0,FALSE,right,avoid,neg,fungus29_crop.jpg,3,18,TRUE,171,1,3176.2495,999,DON'T EAT                                    EAT,3175.5261,3169.4878,3118.5173,left,1,left,left,not_eat,not_eat,avoid,neg,avoid-neg,1,1,723.3999999999069
sub-KP,173,0,TRUE,right,approach,neg,insect38_crop.jpg,3,18,TRUE,172,--,NA,999,DON'T EAT                                    EAT,3177.5447,3169.4878,3118.5173,left,2,NA,right,no_response,eat,avoid,neg,avoid-neg,NA,1,NA
sub-KP,174,0,FALSE,right,avoid,neg,fungus39_crop.jpg,3,18,TRUE,173,1,3180.1018,999,DON'T EAT                                    EAT,3179.563,3169.4878,3118.5173,left,1,left,left,not_eat,not_eat,avoid,neg,avoid-neg,1,1,538.7999999998137
sub-KP,175,0,FALSE,right,avoid,neg,fungus34_crop.jpg,3,18,TRUE,174,1,3182.2234,999,DON'T EAT                                    EAT,3181.5813,3169.4878,3118.5173,left,1,left,left,not_eat,not_eat,avoid,neg,avoid-neg,1,1,642.1000000000931
sub-KP,176,0,FALSE,right,avoid,neg,fungus24_crop.jpg,3,18,TRUE,175,1,3184.1387,999,DON'T EAT                                    EAT,3183.5996,3169.4878,3118.5173,left,1,left,left,not_eat,not_eat,avoid,neg,avoid-neg,1,1,539.1000000000931
sub-KP,177,0,FALSE,right,avoid,neg,fungus14_crop.jpg,3,18,TRUE,176,1,3186.0625,999,DON'T EAT                                    EAT,3185.618,3169.4878,3118.5173,left,1,left,left,not_eat,not_eat,avoid,neg,avoid-neg,1,1,444.5
sub-KP,178,0,FALSE,right,avoid,neg,fungus11_crop.jpg,3,18,TRUE,177,1,3188.0273,999,DON'T EAT                                    EAT,3187.6365,3169.4878,3118.5173,left,1,left,left,not_eat,not_eat,avoid,neg,avoid-neg,1,1,390.8000000002794
sub-KP,179,0,FALSE,right,avoid,neg,fungus1_crop.jpg,3,18,TRUE,178,1,3190.0674,999,DON'T EAT                                    EAT,3189.6545,3169.4878,3118.5173,left,1,left,left,not_eat,not_eat,avoid,neg,avoid-neg,1,1,412.89999999990687
sub-KP,180,0,TRUE,right,approach,pos,cake32_crop.jpg,3,18,TRUE,179,1,3192.1155,999,DON'T EAT                                    EAT,3191.6729,3169.4878,3118.5173,left,1,left,left,not_eat,not_eat,avoid,neg,avoid-neg,0,0,442.60000000009313
sub-KP,181,1,FALSE,left,approach,pos,cake29_crop.jpg,3,19,TRUE,180,1,3209.7715,999,DON'T EAT                                    EAT,3209.2874,3205.2676,3118.5173,left,1,left,left,not_eat,not_eat,approach,pos,approach-pos,0,0,484.09999999962747
sub-KP,182,1,FALSE,left,approach,pos,cake32_crop.jpg,3,19,TRUE,181,--,NA,999,DON'T EAT                                    EAT,3211.306,3205.2676,3118.5173,left,2,NA,right,no_response,eat,approach,pos,approach-pos,NA,1,NA
sub-KP,183,1,FALSE,left,approach,pos,cake23_crop.jpg,3,19,TRUE,182,--,NA,999,DON'T EAT                                    EAT,3213.324,3205.2676,3118.5173,left,2,NA,right,no_response,eat,approach,pos,approach-pos,NA,1,NA
sub-KP,184,1,FALSE,left,approach,pos,cake18_crop.jpg,3,19,TRUE,183,--,NA,999,DON'T EAT                                    EAT,3215.3425,3205.2676,3118.5173,left,2,NA,right,no_response,eat,approach,pos,approach-pos,NA,1,NA
sub-KP,185,1,FALSE,left,approach,pos,cake3_crop.jpg,3,19,TRUE,184,--,NA,999,DON'T EAT                                    EAT,3217.3608,3205.2676,3118.5173,left,2,NA,right,no_response,eat,approach,pos,approach-pos,NA,1,NA
sub-KP,186,1,FALSE,left,approach,pos,cake26_crop.jpg,3,19,TRUE,185,--,NA,999,DON'T EAT                                    EAT,3219.3792,3205.2676,3118.5173,left,2,NA,right,no_response,eat,approach,pos,approach-pos,NA,1,NA
sub-KP,187,1,FALSE,left,approach,pos,cake33_crop.jpg,3,19,TRUE,186,--,NA,999,DON'T EAT                                    EAT,3221.3977,3205.2676,3118.5173,left,2,NA,right,no_response,eat,approach,pos,approach-pos,NA,1,NA
sub-KP,188,1,FALSE,left,approach,pos,cake2_crop.jpg,3,19,TRUE,187,--,NA,999,DON'T EAT                                    EAT,3223.416,3205.2676,3118.5173,left,2,NA,right,no_response,eat,approach,pos,approach-pos,NA,1,NA
sub-KP,189,1,TRUE,left,avoid,neg,fungus28_crop.jpg,3,19,TRUE,188,1,3226.2627,999,DON'T EAT                                    EAT,3225.4343,3205.2676,3118.5173,left,1,left,left,not_eat,not_eat,approach,pos,approach-pos,1,1,828.4000000003725
sub-KP,190,1,TRUE,left,avoid,pos,meat22_crop.jpg,3,19,TRUE,189,--,NA,999,DON'T EAT                                    EAT,3227.4526,3205.2676,3118.5173,left,2,NA,right,no_response,eat,approach,pos,approach-pos,NA,0,NA
sub-KP,191,2,FALSE,right,approach,pos,cake28_crop.jpg,3,20,TRUE,190,--,NA,999,DON'T EAT                                    EAT,3246.3352,3242.3152,3118.5173,left,2,NA,right,no_response,eat,approach,pos,approach-pos,NA,1,NA
sub-KP,192,2,FALSE,right,approach,pos,cake26_crop.jpg,3,20,TRUE,191,--,NA,999,DON'T EAT                                    EAT,3248.3533,3242.3152,3118.5173,left,2,NA,right,no_response,eat,approach,pos,approach-pos,NA,1,NA
sub-KP,193,2,FALSE,right,approach,pos,cake11_crop.jpg,3,20,TRUE,192,--,NA,999,DON'T EAT                                    EAT,3250.3716,3242.3152,3118.5173,left,2,NA,right,no_response,eat,approach,pos,approach-pos,NA,1,NA
sub-KP,194,2,TRUE,right,avoid,neg,fungus22_crop.jpg,3,20,TRUE,193,1,3253.0217,999,DON'T EAT                                    EAT,3252.3901,3242.3152,3118.5173,left,1,left,left,not_eat,not_eat,approach,pos,approach-pos,1,1,631.5999999996275
sub-KP,195,2,TRUE,right,avoid,pos,meat8_crop.jpg,3,20,TRUE,194,1,3255.116,999,DON'T EAT                                    EAT,3254.4082,3242.3152,3118.5173,left,1,left,left,not_eat,not_eat,approach,pos,approach-pos,1,1,707.8000000002794
sub-KP,196,2,FALSE,right,approach,pos,cake27_crop.jpg,3,20,TRUE,195,1,3256.8794,999,DON'T EAT                                    EAT,3256.4265,3242.3152,3118.5173,left,1,left,left,not_eat,not_eat,approach,pos,approach-pos,0,0,452.89999999990687
sub-KP,197,2,FALSE,right,approach,pos,cake16_crop.jpg,3,20,TRUE,196,--,NA,999,DON'T EAT                                    EAT,3258.445,3242.3152,3118.5173,left,2,NA,right,no_response,eat,approach,pos,approach-pos,NA,1,NA
sub-KP,198,2,FALSE,right,approach,pos,cake30_crop.jpg,3,20,TRUE,197,--,NA,999,DON'T EAT                                    EAT,3260.463,3242.3152,3118.5173,left,2,NA,right,no_response,eat,approach,pos,approach-pos,NA,1,NA
sub-KP,199,2,FALSE,right,approach,pos,cake6_crop.jpg,3,20,TRUE,198,--,NA,999,DON'T EAT                                    EAT,3262.4817,3242.3152,3118.5173,left,2,NA,right,no_response,eat,approach,pos,approach-pos,NA,1,NA
sub-KP,200,2,FALSE,right,approach,pos,cake36_crop.jpg,3,20,TRUE,199,--,NA,999,DON'T EAT                                    EAT,3264.5,3242.3152,3118.5173,left,2,NA,right,no_response,eat,approach,pos,approach-pos,NA,1,NA
sub-KP,201,3,FALSE,left,avoid,pos,meat34_crop.jpg,3,21,TRUE,200,1,3282.2695,999,DON'T EAT                                    EAT,3281.481,3277.461,3118.5173,left,1,left,left,not_eat,not_eat,avoid,pos,avoid-pos,1,1,788.5
sub-KP,202,3,FALSE,left,avoid,pos,meat23_crop.jpg,3,21,TRUE,201,1,3284.4048,999,DON'T EAT                                    EAT,3283.4993,3277.461,3118.5173,left,1,left,left,not_eat,not_eat,avoid,pos,avoid-pos,1,1,905.5
sub-KP,203,3,FALSE,left,avoid,pos,meat32_crop.jpg,3,21,TRUE,202,1,3286.0127,999,DON'T EAT                                    EAT,3285.5176,3277.461,3118.5173,left,1,left,left,not_eat,not_eat,avoid,pos,avoid-pos,1,1,495.10000000009313
sub-KP,204,3,TRUE,left,approach,pos,cake12_crop.jpg,3,21,TRUE,203,--,NA,999,DON'T EAT                                    EAT,3287.536,3277.461,3118.5173,left,2,NA,right,no_response,eat,avoid,pos,avoid-pos,NA,1,NA
sub-KP,205,3,FALSE,left,avoid,pos,meat3_crop.jpg,3,21,TRUE,204,1,3290.0625,999,DON'T EAT                                    EAT,3289.5544,3277.461,3118.5173,left,1,left,left,not_eat,not_eat,avoid,pos,avoid-pos,1,1,508.10000000009313
sub-KP,206,3,FALSE,left,avoid,pos,meat27_crop.jpg,3,21,TRUE,205,1,3292.3542,999,DON'T EAT                                    EAT,3291.5728,3277.461,3118.5173,left,1,left,left,not_eat,not_eat,avoid,pos,avoid-pos,1,1,781.4000000003725
sub-KP,207,3,FALSE,left,avoid,pos,meat24_crop.jpg,3,21,TRUE,206,1,3294.0972,999,DON'T EAT                                    EAT,3293.591,3277.461,3118.5173,left,1,left,left,not_eat,not_eat,avoid,pos,avoid-pos,1,1,506.20000000018626
sub-KP,208,3,FALSE,left,avoid,pos,meat1_crop.jpg,3,21,TRUE,207,1,3296.2253,999,DON'T EAT                                    EAT,3295.6094,3277.461,3118.5173,left,1,left,left,not_eat,not_eat,avoid,pos,avoid-pos,1,1,615.9000000003725
sub-KP,209,3,TRUE,left,approach,neg,insect29_crop.jpg,3,21,TRUE,208,1,3298.081,999,DON'T EAT                                    EAT,3297.6277,3277.461,3118.5173,left,1,left,left,not_eat,not_eat,avoid,pos,avoid-pos,0,0,453.29999999981374
sub-KP,210,3,FALSE,left,avoid,pos,meat35_crop.jpg,3,21,TRUE,209,1,3300.163,999,DON'T EAT                                    EAT,3299.646,3277.461,3118.5173,left,1,left,left,not_eat,not_eat,avoid,pos,avoid-pos,1,1,517
sub-KP,211,0,FALSE,left,approach,neg,insect40_crop.jpg,3,22,TRUE,210,--,NA,999,DON'T EAT                                    EAT,3317.5776,3313.5576,3118.5173,left,2,NA,right,no_response,eat,approach,neg,approach-neg,NA,1,NA
sub-KP,212,0,FALSE,left,approach,neg,insect17_crop.jpg,3,22,TRUE,211,--,NA,999,DON'T EAT                                    EAT,3319.596,3313.5576,3118.5173,left,2,NA,right,no_response,eat,approach,neg,approach-neg,NA,1,NA
sub-KP,213,0,FALSE,left,approach,neg,insect14_crop.jpg,3,22,TRUE,212,--,NA,999,DON'T EAT                                    EAT,3321.6143,3313.5576,3118.5173,left,2,NA,right,no_response,eat,approach,neg,approach-neg,NA,1,NA
sub-KP,214,0,TRUE,left,avoid,pos,meat13_crop.jpg,3,22,TRUE,213,1,3324.1714,999,DON'T EAT                                    EAT,3323.6326,3313.5576,3118.5173,left,1,left,left,not_eat,not_eat,approach,neg,approach-neg,1,1,538.8000000002794
sub-KP,215,0,FALSE,left,approach,neg,insect1_crop.jpg,3,22,TRUE,214,--,NA,999,DON'T EAT                                    EAT,3325.651,3313.5576,3118.5173,left,2,NA,right,no_response,eat,approach,neg,approach-neg,NA,1,NA
sub-KP,216,0,TRUE,left,avoid,neg,fungus20_crop.jpg,3,22,TRUE,215,1,3328.1743,999,DON'T EAT                                    EAT,3327.6692,3313.5576,3118.5173,left,1,left,left,not_eat,not_eat,approach,neg,approach-neg,1,1,505.1000000005588
sub-KP,217,0,FALSE,left,approach,neg,insect10_crop.jpg,3,22,TRUE,216,--,NA,999,DON'T EAT                                    EAT,3329.6877,3313.5576,3118.5173,left,2,NA,right,no_response,eat,approach,neg,approach-neg,NA,1,NA
sub-KP,218,0,FALSE,left,approach,neg,insect7_crop.jpg,3,22,TRUE,217,--,NA,999,DON'T EAT                                    EAT,3331.706,3313.5576,3118.5173,left,2,NA,right,no_response,eat,approach,neg,approach-neg,NA,1,NA
sub-KP,219,0,FALSE,left,approach,neg,insect38_crop.jpg,3,22,TRUE,218,--,NA,999,DON'T EAT                                    EAT,3333.7244,3313.5576,3118.5173,left,2,NA,right,no_response,eat,approach,neg,approach-neg,NA,1,NA
sub-KP,220,0,FALSE,left,approach,neg,insect26_crop.jpg,3,22,TRUE,219,--,NA,999,DON'T EAT                                    EAT,3335.7427,3313.5576,3118.5173,left,2,NA,right,no_response,eat,approach,neg,approach-neg,NA,1,NA
sub-KP,221,2,TRUE,left,avoid,pos,meat10_crop.jpg,3,23,TRUE,220,1,3354.8694,999,DON'T EAT                                    EAT,3354.1748,3350.1545,3118.5173,left,1,left,left,not_eat,not_eat,approach,neg,approach-neg,1,1,694.6000000000931
sub-KP,222,2,FALSE,left,approach,neg,insect36_crop.jpg,3,23,TRUE,221,--,NA,999,DON'T EAT                                    EAT,3356.1926,3350.1545,3118.5173,left,2,NA,right,no_response,eat,approach,neg,approach-neg,NA,1,NA
sub-KP,223,2,FALSE,left,approach,neg,insect23_crop.jpg,3,23,TRUE,222,--,NA,999,DON'T EAT                                    EAT,3358.2114,3350.1545,3118.5173,left,2,NA,right,no_response,eat,approach,neg,approach-neg,NA,1,NA
sub-KP,224,2,FALSE,left,approach,neg,insect13_crop.jpg,3,23,TRUE,223,--,NA,999,DON'T EAT                                    EAT,3360.23,3350.1545,3118.5173,left,2,NA,right,no_response,eat,approach,neg,approach-neg,NA,1,NA
sub-KP,225,2,FALSE,left,approach,neg,insect34_crop.jpg,3,23,TRUE,224,--,NA,999,DON'T EAT                                    EAT,3362.2483,3350.1545,3118.5173,left,2,NA,right,no_response,eat,approach,neg,approach-neg,NA,1,NA
sub-KP,226,2,FALSE,left,approach,neg,insect5_crop.jpg,3,23,TRUE,225,--,NA,999,DON'T EAT                                    EAT,3364.2664,3350.1545,3118.5173,left,2,NA,right,no_response,eat,approach,neg,approach-neg,NA,1,NA
sub-KP,227,2,FALSE,left,approach,neg,insect22_crop.jpg,3,23,TRUE,226,--,NA,999,DON'T EAT                                    EAT,3366.2842,3350.1545,3118.5173,left,2,NA,right,no_response,eat,approach,neg,approach-neg,NA,1,NA
sub-KP,228,2,FALSE,left,approach,neg,insect6_crop.jpg,3,23,TRUE,227,--,NA,999,DON'T EAT                                    EAT,3368.303,3350.1545,3118.5173,left,2,NA,right,no_response,eat,approach,neg,approach-neg,NA,1,NA
sub-KP,229,2,TRUE,left,avoid,neg,fungus7_crop.jpg,3,23,TRUE,228,1,3371.1455,999,DON'T EAT                                    EAT,3370.3213,3350.1545,3118.5173,left,1,left,left,not_eat,not_eat,approach,neg,approach-neg,1,1,824.1999999997206
sub-KP,230,2,FALSE,left,approach,neg,insect18_crop.jpg,3,23,TRUE,229,1,3372.8142,999,DON'T EAT                                    EAT,3372.3398,3350.1545,3118.5173,left,1,left,left,not_eat,not_eat,approach,neg,approach-neg,0,0,474.3999999994412
sub-KP,231,3,FALSE,left,approach,pos,cake10_crop.jpg,3,24,TRUE,230,--,NA,999,DON'T EAT                                    EAT,3391.8892,3387.8694,3118.5173,left,2,NA,right,no_response,eat,approach,pos,approach-pos,NA,1,NA
sub-KP,232,3,FALSE,left,approach,pos,cake17_crop.jpg,3,24,TRUE,231,--,NA,999,DON'T EAT                                    EAT,3393.9077,3387.8694,3118.5173,left,2,NA,right,no_response,eat,approach,pos,approach-pos,NA,1,NA
sub-KP,233,3,FALSE,left,approach,pos,cake27_crop.jpg,3,24,TRUE,232,--,NA,999,DON'T EAT                                    EAT,3395.9263,3387.8694,3118.5173,left,2,NA,right,no_response,eat,approach,pos,approach-pos,NA,1,NA
sub-KP,234,3,TRUE,left,avoid,neg,fungus17_crop.jpg,3,24,TRUE,233,1,3398.598,999,DON'T EAT                                    EAT,3397.9443,3387.8694,3118.5173,left,1,left,left,not_eat,not_eat,approach,pos,approach-pos,1,1,653.6999999997206
sub-KP,235,3,FALSE,left,approach,pos,cake28_crop.jpg,3,24,TRUE,234,--,NA,999,DON'T EAT                                    EAT,3399.9626,3387.8694,3118.5173,left,2,NA,right,no_response,eat,approach,pos,approach-pos,NA,1,NA
sub-KP,236,3,TRUE,left,avoid,pos,meat6_crop.jpg,3,24,TRUE,235,1,3402.6125,999,DON'T EAT                                    EAT,3401.9812,3387.8694,3118.5173,left,1,left,left,not_eat,not_eat,approach,pos,approach-pos,1,1,631.2999999998137
sub-KP,237,3,FALSE,left,approach,pos,cake39_crop.jpg,3,24,TRUE,236,--,NA,999,DON'T EAT                                    EAT,3403.9995,3387.8694,3118.5173,left,2,NA,right,no_response,eat,approach,pos,approach-pos,NA,1,NA
sub-KP,238,3,FALSE,left,approach,pos,cake19_crop.jpg,3,24,TRUE,237,--,NA,999,DON'T EAT                                    EAT,3406.0178,3387.8694,3118.5173,left,2,NA,right,no_response,eat,approach,pos,approach-pos,NA,1,NA
sub-KP,239,3,FALSE,left,approach,pos,cake21_crop.jpg,3,24,TRUE,238,--,NA,999,DON'T EAT                                    EAT,3408.0364,3387.8694,3118.5173,left,2,NA,right,no_response,eat,approach,pos,approach-pos,NA,1,NA
sub-KP,240,3,FALSE,left,approach,pos,cake14_crop.jpg,3,24,TRUE,239,--,NA,999,DON'T EAT                                    EAT,3410.0547,3387.8694,3118.5173,left,2,NA,right,no_response,eat,approach,pos,approach-pos,NA,1,NA
sub-KP,241,0,FALSE,left,avoid,neg,fungus40_crop.jpg,4,25,TRUE,240,1,3520.1782,999,DON'T EAT                                    EAT,3519.5786,3515.5588,3505.3887,right,1,left,left,not_eat,not_eat,avoid,neg,avoid-neg,1,1,599.6000000000931
sub-KP,242,0,FALSE,left,avoid,neg,fungus38_crop.jpg,4,25,TRUE,241,1,3522.1428,999,DON'T EAT                                    EAT,3521.5972,3515.5588,3505.3887,right,1,left,left,not_eat,not_eat,avoid,neg,avoid-neg,1,1,545.6000000000931
sub-KP,243,0,FALSE,left,avoid,neg,fungus30_crop.jpg,4,25,TRUE,242,1,3523.9836,999,DON'T EAT                                    EAT,3523.6157,3515.5588,3505.3887,right,1,left,left,not_eat,not_eat,avoid,neg,avoid-neg,1,1,367.90000000037253
sub-KP,244,0,FALSE,left,avoid,neg,fungus5_crop.jpg,4,25,TRUE,243,1,3526.0571,999,DON'T EAT                                    EAT,3525.6338,3515.5588,3505.3887,right,1,left,left,not_eat,not_eat,avoid,neg,avoid-neg,1,1,423.29999999981374
sub-KP,245,0,FALSE,left,avoid,neg,fungus37_crop.jpg,4,25,TRUE,244,1,3528.093,999,DON'T EAT                                    EAT,3527.6523,3515.5588,3505.3887,right,1,left,left,not_eat,not_eat,avoid,neg,avoid-neg,1,1,440.6999999997206
sub-KP,246,0,TRUE,left,approach,neg,insect39_crop.jpg,4,25,TRUE,245,--,NA,999,DON'T EAT                                    EAT,3529.6707,3515.5588,3505.3887,right,2,NA,right,no_response,eat,avoid,neg,avoid-neg,NA,1,NA
sub-KP,247,0,FALSE,left,avoid,neg,fungus3_crop.jpg,4,25,TRUE,246,1,3532.1729,999,DON'T EAT                                    EAT,3531.689,3515.5588,3505.3887,right,1,left,left,not_eat,not_eat,avoid,neg,avoid-neg,1,1,483.89999999990687
sub-KP,248,0,FALSE,left,avoid,neg,fungus25_crop.jpg,4,25,TRUE,247,1,3534.172,999,DON'T EAT                                    EAT,3533.7073,3515.5588,3505.3887,right,1,left,left,not_eat,not_eat,avoid,neg,avoid-neg,1,1,464.70000000018626
sub-KP,249,0,FALSE,left,avoid,neg,fungus1_crop.jpg,4,25,TRUE,248,1,3536.2747,999,DON'T EAT                                    EAT,3535.7256,3515.5588,3505.3887,right,1,left,left,not_eat,not_eat,avoid,neg,avoid-neg,1,1,549.0999999996275
sub-KP,250,0,TRUE,left,approach,pos,cake4_crop.jpg,4,25,TRUE,249,--,NA,999,DON'T EAT                                    EAT,3537.7441,3515.5588,3505.3887,right,2,NA,right,no_response,eat,avoid,neg,avoid-neg,NA,1,NA
sub-KP,251,2,FALSE,right,approach,neg,insect22_crop.jpg,4,26,TRUE,250,--,NA,999,DON'T EAT                                    EAT,3555.4587,3551.4387,3505.3887,right,2,NA,right,no_response,eat,approach,neg,approach-neg,NA,1,NA
sub-KP,252,2,FALSE,right,approach,neg,insect37_crop.jpg,4,26,TRUE,251,--,NA,999,DON'T EAT                                    EAT,3557.4768,3551.4387,3505.3887,right,2,NA,right,no_response,eat,approach,neg,approach-neg,NA,1,NA
sub-KP,253,2,FALSE,right,approach,neg,insect27_crop.jpg,4,26,TRUE,252,--,NA,999,DON'T EAT                                    EAT,3559.4954,3551.4387,3505.3887,right,2,NA,right,no_response,eat,approach,neg,approach-neg,NA,1,NA
sub-KP,254,2,FALSE,right,approach,neg,insect28_crop.jpg,4,26,TRUE,253,--,NA,999,DON'T EAT                                    EAT,3561.514,3551.4387,3505.3887,right,2,NA,right,no_response,eat,approach,neg,approach-neg,NA,1,NA
sub-KP,255,2,FALSE,right,approach,neg,insect13_crop.jpg,4,26,TRUE,254,--,NA,999,DON'T EAT                                    EAT,3563.532,3551.4387,3505.3887,right,2,NA,right,no_response,eat,approach,neg,approach-neg,NA,1,NA
sub-KP,256,2,FALSE,right,approach,neg,insect15_crop.jpg,4,26,TRUE,255,--,NA,999,DON'T EAT                                    EAT,3565.5505,3551.4387,3505.3887,right,2,NA,right,no_response,eat,approach,neg,approach-neg,NA,1,NA
sub-KP,257,2,TRUE,right,avoid,neg,fungus10_crop.jpg,4,26,TRUE,256,1,3568.0964,999,DON'T EAT                                    EAT,3567.5688,3551.4387,3505.3887,right,1,left,left,not_eat,not_eat,approach,neg,approach-neg,1,1,527.6000000000931
sub-KP,258,2,FALSE,right,approach,neg,insect31_crop.jpg,4,26,TRUE,257,--,NA,999,DON'T EAT                                    EAT,3569.587,3551.4387,3505.3887,right,2,NA,right,no_response,eat,approach,neg,approach-neg,NA,1,NA
sub-KP,259,2,TRUE,right,avoid,pos,meat25_crop.jpg,4,26,TRUE,258,1,3572.2883,999,DON'T EAT                                    EAT,3571.6055,3551.4387,3505.3887,right,1,left,left,not_eat,not_eat,approach,neg,approach-neg,1,1,682.8000000002794
sub-KP,260,2,FALSE,right,approach,neg,insect19_crop.jpg,4,26,TRUE,259,--,NA,999,DON'T EAT                                    EAT,3573.6238,3551.4387,3505.3887,right,2,NA,right,no_response,eat,approach,neg,approach-neg,NA,1,NA
sub-KP,261,3,FALSE,left,approach,neg,insect12_crop.jpg,4,27,TRUE,260,--,NA,999,DON'T EAT                                    EAT,3593.5068,3589.4868,3505.3887,right,2,NA,right,no_response,eat,approach,neg,approach-neg,NA,1,NA
sub-KP,262,3,TRUE,left,avoid,neg,fungus13_crop.jpg,4,27,TRUE,261,1,3596.1382,999,DON'T EAT                                    EAT,3595.5254,3589.4868,3505.3887,right,1,left,left,not_eat,not_eat,approach,neg,approach-neg,1,1,612.7999999998137
sub-KP,263,3,FALSE,left,approach,neg,insect33_crop.jpg,4,27,TRUE,262,--,NA,999,DON'T EAT                                    EAT,3597.544,3589.4868,3505.3887,right,2,NA,right,no_response,eat,approach,neg,approach-neg,NA,1,NA
sub-KP,264,3,FALSE,left,approach,neg,insect4_crop.jpg,4,27,TRUE,263,--,NA,999,DON'T EAT                                    EAT,3599.562,3589.4868,3505.3887,right,2,NA,right,no_response,eat,approach,neg,approach-neg,NA,1,NA
sub-KP,265,3,FALSE,left,approach,neg,insect2_crop.jpg,4,27,TRUE,264,--,NA,999,DON'T EAT                                    EAT,3601.5803,3589.4868,3505.3887,right,2,NA,right,no_response,eat,approach,neg,approach-neg,NA,1,NA
sub-KP,266,3,FALSE,left,approach,neg,insect16_crop.jpg,4,27,TRUE,265,--,NA,999,DON'T EAT                                    EAT,3603.5986,3589.4868,3505.3887,right,2,NA,right,no_response,eat,approach,neg,approach-neg,NA,1,NA
sub-KP,267,3,FALSE,left,approach,neg,insect11_crop.jpg,4,27,TRUE,266,--,NA,999,DON'T EAT                                    EAT,3605.6167,3589.4868,3505.3887,right,2,NA,right,no_response,eat,approach,neg,approach-neg,NA,1,NA
sub-KP,268,3,FALSE,left,approach,neg,insect28_crop.jpg,4,27,TRUE,267,--,NA,999,DON'T EAT                                    EAT,3607.6355,3589.4868,3505.3887,right,2,NA,right,no_response,eat,approach,neg,approach-neg,NA,1,NA
sub-KP,269,3,TRUE,left,avoid,pos,meat8_crop.jpg,4,27,TRUE,268,1,3610.4421,999,DON'T EAT                                    EAT,3609.6538,3589.4868,3505.3887,right,1,left,left,not_eat,not_eat,approach,neg,approach-neg,1,1,788.3000000002794
sub-KP,270,3,FALSE,left,approach,neg,insect32_crop.jpg,4,27,TRUE,269,--,NA,999,DON'T EAT                                    EAT,3611.672,3589.4868,3505.3887,right,2,NA,right,no_response,eat,approach,neg,approach-neg,NA,1,NA
sub-KP,271,0,TRUE,left,avoid,neg,fungus24_crop.jpg,4,28,TRUE,270,1,3631.0862,999,DON'T EAT                                    EAT,3630.171,3626.1506,3505.3887,right,1,left,left,not_eat,not_eat,approach,pos,approach-pos,1,1,915.2000000001863
sub-KP,272,0,FALSE,left,approach,pos,cake8_crop.jpg,4,28,TRUE,271,--,NA,999,DON'T EAT                                    EAT,3632.1892,3626.1506,3505.3887,right,2,NA,right,no_response,eat,approach,pos,approach-pos,NA,1,NA
sub-KP,273,0,FALSE,left,approach,pos,cake38_crop.jpg,4,28,TRUE,272,--,NA,999,DON'T EAT                                    EAT,3634.2075,3626.1506,3505.3887,right,2,NA,right,no_response,eat,approach,pos,approach-pos,NA,1,NA
sub-KP,274,0,FALSE,left,approach,pos,cake40_crop.jpg,4,28,TRUE,273,--,NA,999,DON'T EAT                                    EAT,3636.2258,3626.1506,3505.3887,right,2,NA,right,no_response,eat,approach,pos,approach-pos,NA,1,NA
sub-KP,275,0,FALSE,left,approach,pos,cake13_crop.jpg,4,28,TRUE,274,--,NA,999,DON'T EAT                                    EAT,3638.2444,3626.1506,3505.3887,right,2,NA,right,no_response,eat,approach,pos,approach-pos,NA,1,NA
sub-KP,276,0,FALSE,left,approach,pos,cake1_crop.jpg,4,28,TRUE,275,--,NA,999,DON'T EAT                                    EAT,3640.2622,3626.1506,3505.3887,right,2,NA,right,no_response,eat,approach,pos,approach-pos,NA,1,NA
sub-KP,277,0,FALSE,left,approach,pos,cake15_crop.jpg,4,28,TRUE,276,--,NA,999,DON'T EAT                                    EAT,3642.281,3626.1506,3505.3887,right,2,NA,right,no_response,eat,approach,pos,approach-pos,NA,1,NA
sub-KP,278,0,FALSE,left,approach,pos,cake30_crop.jpg,4,28,TRUE,277,--,NA,999,DON'T EAT                                    EAT,3644.2993,3626.1506,3505.3887,right,2,NA,right,no_response,eat,approach,pos,approach-pos,NA,1,NA
sub-KP,279,0,FALSE,left,approach,pos,cake7_crop.jpg,4,28,TRUE,278,--,NA,999,DON'T EAT                                    EAT,3646.3174,3626.1506,3505.3887,right,2,NA,right,no_response,eat,approach,pos,approach-pos,NA,1,NA
sub-KP,280,0,TRUE,left,avoid,pos,meat40_crop.jpg,4,28,TRUE,279,1,3649.0608,999,DON'T EAT                                    EAT,3648.3354,3626.1506,3505.3887,right,1,left,left,not_eat,not_eat,approach,pos,approach-pos,1,1,725.4000000003725
sub-KP,281,0,FALSE,right,approach,pos,cake34_crop.jpg,4,29,TRUE,280,1,3667.7603,999,DON'T EAT                                    EAT,3667.0015,3662.9814,3505.3887,right,1,left,left,not_eat,not_eat,approach,pos,approach-pos,0,0,758.7999999998137
sub-KP,282,0,FALSE,right,approach,pos,cake10_crop.jpg,4,29,TRUE,281,--,NA,999,DON'T EAT                                    EAT,3669.0198,3662.9814,3505.3887,right,2,NA,right,no_response,eat,approach,pos,approach-pos,NA,1,NA
sub-KP,283,0,TRUE,right,avoid,pos,meat23_crop.jpg,4,29,TRUE,282,1,3671.7139,999,DON'T EAT                                    EAT,3671.038,3662.9814,3505.3887,right,1,left,left,not_eat,not_eat,approach,pos,approach-pos,1,1,675.9000000003725
sub-KP,284,0,FALSE,right,approach,pos,cake1_crop.jpg,4,29,TRUE,283,--,NA,999,DON'T EAT                                    EAT,3673.0566,3662.9814,3505.3887,right,2,NA,right,no_response,eat,approach,pos,approach-pos,NA,1,NA
sub-KP,285,0,FALSE,right,approach,pos,cake9_crop.jpg,4,29,TRUE,284,--,NA,999,DON'T EAT                                    EAT,3675.075,3662.9814,3505.3887,right,2,NA,right,no_response,eat,approach,pos,approach-pos,NA,1,NA
sub-KP,286,0,FALSE,right,approach,pos,cake40_crop.jpg,4,29,TRUE,285,--,NA,999,DON'T EAT                                    EAT,3677.0933,3662.9814,3505.3887,right,2,NA,right,no_response,eat,approach,pos,approach-pos,NA,1,NA
sub-KP,287,0,FALSE,right,approach,pos,cake33_crop.jpg,4,29,TRUE,286,--,NA,999,DON'T EAT                                    EAT,3679.1116,3662.9814,3505.3887,right,2,NA,right,no_response,eat,approach,pos,approach-pos,NA,1,NA
sub-KP,288,0,TRUE,right,avoid,neg,fungus25_crop.jpg,4,29,TRUE,287,1,3681.8074,999,DON'T EAT                                    EAT,3681.13,3662.9814,3505.3887,right,1,left,left,not_eat,not_eat,approach,pos,approach-pos,1,1,677.4000000003725
sub-KP,289,0,FALSE,right,approach,pos,cake7_crop.jpg,4,29,TRUE,288,--,NA,999,DON'T EAT                                    EAT,3683.1482,3662.9814,3505.3887,right,2,NA,right,no_response,eat,approach,pos,approach-pos,NA,1,NA
sub-KP,290,0,FALSE,right,approach,pos,cake29_crop.jpg,4,29,TRUE,289,1,3686.0923,999,DON'T EAT                                    EAT,3685.1667,3662.9814,3505.3887,right,1,left,left,not_eat,not_eat,approach,pos,approach-pos,0,0,925.5999999996275
sub-KP,291,1,FALSE,left,approach,neg,insect20_crop.jpg,4,30,TRUE,290,3,3703.4316,999,DON'T EAT                                    EAT,3702.4307,3698.411,3505.3887,right,2,NA,right,no_response,eat,approach,neg,approach-neg,NA,1,1000.9000000003725
sub-KP,292,1,FALSE,left,approach,neg,insect19_crop.jpg,4,30,TRUE,291,3,3704.8071,999,DON'T EAT                                    EAT,3704.4492,3698.411,3505.3887,right,2,NA,right,no_response,eat,approach,neg,approach-neg,NA,1,357.89999999990687
sub-KP,293,1,TRUE,left,avoid,pos,meat37_crop.jpg,4,30,TRUE,292,1,3707.0107,999,DON'T EAT                                    EAT,3706.467,3698.411,3505.3887,right,1,left,left,not_eat,not_eat,approach,neg,approach-neg,1,1,543.6999999997206
sub-KP,294,1,FALSE,left,approach,neg,insect35_crop.jpg,4,30,TRUE,293,--,NA,999,DON'T EAT                                    EAT,3708.486,3698.411,3505.3887,right,2,NA,right,no_response,eat,approach,neg,approach-neg,NA,1,NA
sub-KP,295,1,FALSE,left,approach,neg,insect9_crop.jpg,4,30,TRUE,294,--,NA,999,DON'T EAT                                    EAT,3710.5044,3698.411,3505.3887,right,2,NA,right,no_response,eat,approach,neg,approach-neg,NA,1,NA
sub-KP,296,1,FALSE,left,approach,neg,insect3_crop.jpg,4,30,TRUE,295,--,NA,999,DON'T EAT                                    EAT,3712.5227,3698.411,3505.3887,right,2,NA,right,no_response,eat,approach,neg,approach-neg,NA,1,NA
sub-KP,297,1,TRUE,left,avoid,neg,fungus4_crop.jpg,4,30,TRUE,296,1,3715.121,999,DON'T EAT                                    EAT,3714.541,3698.411,3505.3887,right,1,left,left,not_eat,not_eat,approach,neg,approach-neg,1,1,580
sub-KP,298,1,FALSE,left,approach,neg,insect24_crop.jpg,4,30,TRUE,297,--,NA,999,DON'T EAT                                    EAT,3716.5588,3698.411,3505.3887,right,2,NA,right,no_response,eat,approach,neg,approach-neg,NA,1,NA
sub-KP,299,1,FALSE,left,approach,neg,insect37_crop.jpg,4,30,TRUE,298,--,NA,999,DON'T EAT                                    EAT,3718.5776,3698.411,3505.3887,right,2,NA,right,no_response,eat,approach,neg,approach-neg,NA,1,NA
sub-KP,300,1,FALSE,left,approach,neg,insect31_crop.jpg,4,30,TRUE,299,--,NA,999,DON'T EAT                                    EAT,3720.5962,3698.411,3505.3887,right,2,NA,right,no_response,eat,approach,neg,approach-neg,NA,1,NA
sub-KP,301,0,FALSE,left,avoid,pos,meat25_crop.jpg,4,31,TRUE,300,1,3739.6875,999,DON'T EAT                                    EAT,3738.6946,3734.6743,3505.3887,right,1,left,left,not_eat,not_eat,avoid,pos,avoid-pos,1,1,992.9000000003725
sub-KP,302,0,FALSE,left,avoid,pos,meat29_crop.jpg,4,31,TRUE,301,1,3741.5999,999,DON'T EAT                                    EAT,3740.7126,3734.6743,3505.3887,right,1,left,left,not_eat,not_eat,avoid,pos,avoid-pos,1,1,887.3000000007451
sub-KP,303,0,FALSE,left,avoid,pos,meat12_crop.jpg,4,31,TRUE,302,1,3743.2173,999,DON'T EAT                                    EAT,3742.7312,3734.6743,3505.3887,right,1,left,left,not_eat,not_eat,avoid,pos,avoid-pos,1,1,486.09999999962747
sub-KP,304,0,FALSE,left,avoid,pos,meat4_crop.jpg,4,31,TRUE,303,1,3745.0728,999,DON'T EAT                                    EAT,3744.749,3734.6743,3505.3887,right,1,left,left,not_eat,not_eat,avoid,pos,avoid-pos,1,1,323.79999999981374
sub-KP,305,0,FALSE,left,avoid,pos,meat2_crop.jpg,4,31,TRUE,304,1,3747.2424,999,DON'T EAT                                    EAT,3746.7673,3734.6743,3505.3887,right,1,left,left,not_eat,not_eat,avoid,pos,avoid-pos,1,1,475.10000000009313
sub-KP,306,0,TRUE,left,approach,pos,cake9_crop.jpg,4,31,TRUE,305,1,3749.177,999,DON'T EAT                                    EAT,3748.7861,3734.6743,3505.3887,right,1,left,left,not_eat,not_eat,avoid,pos,avoid-pos,0,0,390.90000000037253
sub-KP,307,0,FALSE,left,avoid,pos,meat7_crop.jpg,4,31,TRUE,306,1,3751.4597,999,DON'T EAT                                    EAT,3750.8044,3734.6743,3505.3887,right,1,left,left,not_eat,not_eat,avoid,pos,avoid-pos,1,1,655.2999999998137
sub-KP,308,0,FALSE,left,avoid,pos,meat30_crop.jpg,4,31,TRUE,307,1,3753.434,999,DON'T EAT                                    EAT,3752.8228,3734.6743,3505.3887,right,1,left,left,not_eat,not_eat,avoid,pos,avoid-pos,1,1,611.2000000001863
sub-KP,309,0,FALSE,left,avoid,pos,meat16_crop.jpg,4,31,TRUE,308,1,3755.2422,999,DON'T EAT                                    EAT,3754.8413,3734.6743,3505.3887,right,1,left,left,not_eat,not_eat,avoid,pos,avoid-pos,1,1,400.90000000037253
sub-KP,310,0,TRUE,left,approach,neg,insect25_crop.jpg,4,31,TRUE,309,1,3757.6196,999,DON'T EAT                                    EAT,3756.8594,3734.6743,3505.3887,right,1,left,left,not_eat,not_eat,avoid,pos,avoid-pos,0,0,760.2000000001863
sub-KP,311,0,FALSE,right,avoid,pos,meat1_crop.jpg,4,32,TRUE,310,1,3776.6733,999,DON'T EAT                                    EAT,3775.9753,3771.9556,3505.3887,right,1,left,left,not_eat,not_eat,avoid,pos,avoid-pos,1,1,697.9999999995343
sub-KP,312,0,FALSE,right,avoid,pos,meat2_crop.jpg,4,32,TRUE,311,1,3778.5432,999,DON'T EAT                                    EAT,3777.994,3771.9556,3505.3887,right,1,left,left,not_eat,not_eat,avoid,pos,avoid-pos,1,1,549.2000000001863
sub-KP,313,0,FALSE,right,avoid,pos,meat5_crop.jpg,4,32,TRUE,312,1,3780.4417,999,DON'T EAT                                    EAT,3780.0122,3771.9556,3505.3887,right,1,left,left,not_eat,not_eat,avoid,pos,avoid-pos,1,1,429.49999999953434
sub-KP,314,0,TRUE,right,approach,pos,cake12_crop.jpg,4,32,TRUE,313,--,NA,999,DON'T EAT                                    EAT,3782.0303,3771.9556,3505.3887,right,2,NA,right,no_response,eat,avoid,pos,avoid-pos,NA,1,NA
sub-KP,315,0,FALSE,right,avoid,pos,meat28_crop.jpg,4,32,TRUE,314,1,3784.491,999,DON'T EAT                                    EAT,3784.0488,3771.9556,3505.3887,right,1,left,left,not_eat,not_eat,avoid,pos,avoid-pos,1,1,442.20000000018626
sub-KP,316,0,FALSE,right,avoid,pos,meat36_crop.jpg,4,32,TRUE,315,1,3786.6587,999,DON'T EAT                                    EAT,3786.067,3771.9556,3505.3887,right,1,left,left,not_eat,not_eat,avoid,pos,avoid-pos,1,1,591.7000000001863
sub-KP,317,0,TRUE,right,approach,neg,insect17_crop.jpg,4,32,TRUE,316,1,3788.612,999,DON'T EAT                                    EAT,3788.0854,3771.9556,3505.3887,right,1,left,left,not_eat,not_eat,avoid,pos,avoid-pos,0,0,526.6000000000931
sub-KP,318,0,FALSE,right,avoid,pos,meat34_crop.jpg,4,32,TRUE,317,1,3790.6414,999,DON'T EAT                                    EAT,3790.1038,3771.9556,3505.3887,right,1,left,left,not_eat,not_eat,avoid,pos,avoid-pos,1,1,537.6000000000931
sub-KP,319,0,FALSE,right,avoid,pos,meat17_crop.jpg,4,32,TRUE,318,1,3792.6184,999,DON'T EAT                                    EAT,3792.122,3771.9556,3505.3887,right,1,left,left,not_eat,not_eat,avoid,pos,avoid-pos,1,1,496.39999999990687
sub-KP,320,0,FALSE,right,avoid,pos,meat38_crop.jpg,4,32,TRUE,319,1,3794.5718,999,DON'T EAT                                    EAT,3794.1404000000002,3771.9556,3505.3887,right,1,left,left,not_eat,not_eat,avoid,pos,avoid-pos,1,1,431.39999999990687
