TrialNumber,n_block,catch,hand,mot,val,stim_name,run_number,num_block,ran,order,response,RT,Subject number,n_b,left_side_resp_label,trial_onset,blk_instr_onset,baseline_onset
1,1,False,left,avoid,pos,meat20_crop.jpg,1,1,1.0,0.0,2,1304.6132,1550.0,1.0,EAT                                    DON'T EAT,1303.115,1299.0947,1288.5087
2,1,False,left,avoid,pos,meat25_crop.jpg,1,1,1.0,1.0,2,1306.3138,1550.0,1.0,EAT                                    DON'T EAT,1305.1332,1299.0947,1288.5087
3,1,False,left,avoid,pos,meat31_crop.jpg,1,1,1.0,2.0,2,1307.9325,1550.0,1.0,EAT                                    DON'T EAT,1307.1516,1299.0947,1288.5087
4,1,False,left,avoid,pos,meat18_crop.jpg,1,1,1.0,3.0,2,1310.1511,1550.0,1.0,EAT                                    DON'T EAT,1309.173,1299.0947,1288.5087
5,1,False,left,avoid,pos,meat10_crop.jpg,1,1,1.0,4.0,2,1311.7926,1550.0,1.0,EAT                                    DON'T EAT,1311.1902,1299.0947,1288.5087
6,1,False,left,avoid,pos,meat27_crop.jpg,1,1,1.0,5.0,2,1313.8265,1550.0,1.0,EAT                                    DON'T EAT,1313.2067,1299.0947,1288.5087
7,1,False,left,avoid,pos,meat40_crop.jpg,1,1,1.0,6.0,2,1315.8895,1550.0,1.0,EAT                                    DON'T EAT,1315.225,1299.0947,1288.5087
8,1,True,left,approach,neg,insect7_crop.jpg,1,1,1.0,7.0,1,1317.9784,1550.0,1.0,EAT                                    DON'T EAT,1317.2433,1299.0947,1288.5087
9,1,False,left,avoid,pos,meat26_crop.jpg,1,1,1.0,8.0,2,1320.0074,1550.0,1.0,EAT                                    DON'T EAT,1319.2614,1299.0947,1288.5087
10,1,True,left,approach,pos,cake32_crop.jpg,1,1,1.0,9.0,1,1322.4373,1550.0,1.0,EAT                                    DON'T EAT,1321.2802,1299.0947,1288.5087
11,3,False,left,approach,neg,insect15_crop.jpg,1,2,1.0,10.0,1,1341.6218,1550.0,2.0,EAT                                    DON'T EAT,1340.6963,1336.6758,1288.5087
12,3,False,left,approach,neg,insect18_crop.jpg,1,2,1.0,11.0,1,1343.2521,1550.0,2.0,EAT                                    DON'T EAT,1342.7142,1336.6758,1288.5087
13,3,False,left,approach,neg,insect9_crop.jpg,1,2,1.0,12.0,1,1345.2694,1550.0,2.0,EAT                                    DON'T EAT,1344.7328,1336.6758,1288.5087
14,3,False,left,approach,neg,insect16_crop.jpg,1,2,1.0,13.0,1,1347.3003,1550.0,2.0,EAT                                    DON'T EAT,1346.7512,1336.6758,1288.5087
15,3,True,left,avoid,pos,meat39_crop.jpg,1,2,1.0,14.0,2,1349.9092,1550.0,2.0,EAT                                    DON'T EAT,1348.7695,1336.6758,1288.5087
16,3,False,left,approach,neg,insect39_crop.jpg,1,2,1.0,15.0,1,1351.43,1550.0,2.0,EAT                                    DON'T EAT,1350.7878,1336.6758,1288.5087
17,3,True,left,avoid,neg,fungus2_crop.jpg,1,2,1.0,16.0,2,1354.0093,1550.0,2.0,EAT                                    DON'T EAT,1352.8062,1336.6758,1288.5087
18,3,False,left,approach,neg,insect3_crop.jpg,1,2,1.0,17.0,1,1355.414,1550.0,2.0,EAT                                    DON'T EAT,1354.8245,1336.6758,1288.5087
19,3,False,left,approach,neg,insect27_crop.jpg,1,2,1.0,18.0,1,1357.4329,1550.0,2.0,EAT                                    DON'T EAT,1356.8428,1336.6758,1288.5087
20,3,False,left,approach,neg,insect40_crop.jpg,1,2,1.0,19.0,1,1359.3978,1550.0,2.0,EAT                                    DON'T EAT,1358.8612,1336.6758,1288.5087
21,0,False,right,approach,pos,cake38_crop.jpg,1,3,1.0,20.0,1,1376.6046,1550.0,3.0,EAT                                    DON'T EAT,1375.4415,1371.4216,1288.5087
22,0,False,right,approach,pos,cake19_crop.jpg,1,3,1.0,21.0,1,1378.0385,1550.0,3.0,EAT                                    DON'T EAT,1377.4601,1371.4216,1288.5087
23,0,False,right,approach,pos,cake11_crop.jpg,1,3,1.0,22.0,1,1379.9955,1550.0,3.0,EAT                                    DON'T EAT,1379.4778,1371.4216,1288.5087
24,0,False,right,approach,pos,cake1_crop.jpg,1,3,1.0,23.0,1,1382.1195,1550.0,3.0,EAT                                    DON'T EAT,1381.4967,1371.4216,1288.5087
25,0,False,right,approach,pos,cake18_crop.jpg,1,3,1.0,24.0,1,1384.1892,1550.0,3.0,EAT                                    DON'T EAT,1383.515,1371.4216,1288.5087
26,0,True,right,avoid,pos,meat33_crop.jpg,1,3,1.0,25.0,2,1386.848,1550.0,3.0,EAT                                    DON'T EAT,1385.5334,1371.4216,1288.5087
27,0,False,right,approach,pos,cake15_crop.jpg,1,3,1.0,26.0,1,1388.3677,1550.0,3.0,EAT                                    DON'T EAT,1387.5511,1371.4216,1288.5087
28,0,True,right,avoid,neg,fungus37_crop.jpg,1,3,1.0,27.0,2,1390.515,1550.0,3.0,EAT                                    DON'T EAT,1389.5696,1371.4216,1288.5087
29,0,False,right,approach,pos,cake27_crop.jpg,1,3,1.0,28.0,1,1392.1578,1550.0,3.0,EAT                                    DON'T EAT,1391.5884,1371.4216,1288.5087
30,0,False,right,approach,pos,cake40_crop.jpg,1,3,1.0,29.0,1,1394.2916,1550.0,3.0,EAT                                    DON'T EAT,1393.6067,1371.4216,1288.5087
31,0,False,left,approach,neg,insect25_crop.jpg,1,4,1.0,30.0,1,1412.8391,1550.0,4.0,EAT                                    DON'T EAT,1412.0387,1408.0186,1288.5087
32,0,False,left,approach,neg,insect32_crop.jpg,1,4,1.0,31.0,1,1414.5431,1550.0,4.0,EAT                                    DON'T EAT,1414.0571,1408.0186,1288.5087
33,0,False,left,approach,neg,insect19_crop.jpg,1,4,1.0,32.0,1,1417.0029,1550.0,4.0,EAT                                    DON'T EAT,1416.0753,1408.0186,1288.5087
34,0,True,left,avoid,neg,fungus17_crop.jpg,1,4,1.0,33.0,2,1418.9934,1550.0,4.0,EAT                                    DON'T EAT,1418.0936,1408.0186,1288.5087
35,0,False,left,approach,neg,insect6_crop.jpg,1,4,1.0,34.0,1,1420.6592,1550.0,4.0,EAT                                    DON'T EAT,1420.1119,1408.0186,1288.5087
36,0,True,left,avoid,pos,meat34_crop.jpg,1,4,1.0,35.0,2,1423.8806,1550.0,4.0,EAT                                    DON'T EAT,1422.1305,1408.0186,1288.5087
37,0,False,left,approach,neg,insect24_crop.jpg,1,4,1.0,36.0,1,1425.0767,1550.0,4.0,EAT                                    DON'T EAT,1424.1489,1408.0186,1288.5087
38,0,False,left,approach,neg,insect5_crop.jpg,1,4,1.0,37.0,1,1427.1387,1550.0,4.0,EAT                                    DON'T EAT,1426.1671,1408.0186,1288.5087
39,0,False,left,approach,neg,insect13_crop.jpg,1,4,1.0,38.0,1,1428.6688,1550.0,4.0,EAT                                    DON'T EAT,1428.1854,1408.0186,1288.5087
40,0,False,left,approach,neg,insect35_crop.jpg,1,4,1.0,39.0,1,1430.6371,1550.0,4.0,EAT                                    DON'T EAT,1430.2037,1408.0186,1288.5087
41,1,False,right,approach,neg,insect38_crop.jpg,1,5,1.0,40.0,1,1450.7052,1550.0,5.0,EAT                                    DON'T EAT,1450.0203,1445.9999,1288.5087
42,1,False,right,approach,neg,insect8_crop.jpg,1,5,1.0,41.0,1,1452.5555,1550.0,5.0,EAT                                    DON'T EAT,1452.0382,1445.9999,1288.5087
43,1,False,right,approach,neg,insect23_crop.jpg,1,5,1.0,42.0,1,1454.5963,1550.0,5.0,EAT                                    DON'T EAT,1454.0569,1445.9999,1288.5087
44,1,True,right,avoid,pos,meat38_crop.jpg,1,5,1.0,43.0,2,1456.9089,1550.0,5.0,EAT                                    DON'T EAT,1456.0752,1445.9999,1288.5087
45,1,False,right,approach,neg,insect11_crop.jpg,1,5,1.0,44.0,1,1458.7587,1550.0,5.0,EAT                                    DON'T EAT,1458.0935,1445.9999,1288.5087
46,1,False,right,approach,neg,insect16_crop.jpg,1,5,1.0,45.0,1,1460.7014,1550.0,5.0,EAT                                    DON'T EAT,1460.1118,1445.9999,1288.5087
47,1,False,right,approach,neg,insect35_crop.jpg,1,5,1.0,46.0,1,1462.641,1550.0,5.0,EAT                                    DON'T EAT,1462.1304,1445.9999,1288.5087
48,1,True,right,avoid,neg,fungus16_crop.jpg,1,5,1.0,47.0,2,1465.067,1550.0,5.0,EAT                                    DON'T EAT,1464.1484,1445.9999,1288.5087
49,1,False,right,approach,neg,insect25_crop.jpg,1,5,1.0,48.0,1,1466.6727,1550.0,5.0,EAT                                    DON'T EAT,1466.1669,1445.9999,1288.5087
50,1,False,right,approach,neg,insect37_crop.jpg,1,5,1.0,49.0,1,1469.1687,1550.0,5.0,EAT                                    DON'T EAT,1468.1853,1445.9999,1288.5087
51,3,False,left,avoid,pos,meat19_crop.jpg,1,6,1.0,50.0,2,1488.7844,1550.0,6.0,EAT                                    DON'T EAT,1487.9182,1483.8982,1288.5087
52,3,True,left,approach,neg,insect1_crop.jpg,1,6,1.0,51.0,1,1490.5907,1550.0,6.0,EAT                                    DON'T EAT,1489.9359,1483.8982,1288.5087
53,3,False,left,avoid,pos,meat28_crop.jpg,1,6,1.0,52.0,2,1492.6302,1550.0,6.0,EAT                                    DON'T EAT,1491.955,1483.8982,1288.5087
54,3,True,left,approach,pos,cake12_crop.jpg,1,6,1.0,53.0,1,1495.1609,1550.0,6.0,EAT                                    DON'T EAT,1493.9733,1483.8982,1288.5087
55,3,False,left,avoid,pos,meat21_crop.jpg,1,6,1.0,54.0,2,1496.858,1550.0,6.0,EAT                                    DON'T EAT,1495.9913,1483.8982,1288.5087
56,3,False,left,avoid,pos,meat36_crop.jpg,1,6,1.0,55.0,2,1498.7794,1550.0,6.0,EAT                                    DON'T EAT,1498.0099,1483.8982,1288.5087
57,3,False,left,avoid,pos,meat13_crop.jpg,1,6,1.0,56.0,2,1500.682,1550.0,6.0,EAT                                    DON'T EAT,1500.0283,1483.8982,1288.5087
58,3,False,left,avoid,pos,meat38_crop.jpg,1,6,1.0,57.0,2,1502.552,1550.0,6.0,EAT                                    DON'T EAT,1502.0466,1483.8982,1288.5087
59,3,False,left,avoid,pos,meat29_crop.jpg,1,6,1.0,58.0,2,1504.646,1550.0,6.0,EAT                                    DON'T EAT,1504.065,1483.8982,1288.5087
60,3,False,left,avoid,pos,meat37_crop.jpg,1,6,1.0,59.0,2,1506.483,1550.0,6.0,EAT                                    DON'T EAT,1506.083,1483.8982,1288.5087
61,2,False,right,avoid,pos,meat34_crop.jpg,1,7,1.0,60.0,2,1525.6554,1550.0,7.0,EAT                                    DON'T EAT,1524.7155,1520.6954,1288.5087
62,2,False,right,avoid,pos,meat9_crop.jpg,1,7,1.0,61.0,2,1528.5868,1550.0,7.0,EAT                                    DON'T EAT,1526.7338,1520.6954,1288.5087
63,2,False,right,avoid,pos,meat11_crop.jpg,1,7,1.0,62.0,2,1529.3931,1550.0,7.0,EAT                                    DON'T EAT,1528.7521,1520.6954,1288.5087
64,2,False,right,avoid,pos,meat25_crop.jpg,1,7,1.0,63.0,2,1531.5616,1550.0,7.0,EAT                                    DON'T EAT,1530.7701,1520.6954,1288.5087
65,2,False,right,avoid,pos,meat14_crop.jpg,1,7,1.0,64.0,2,1533.3466,1550.0,7.0,EAT                                    DON'T EAT,1532.7888,1520.6954,1288.5087
66,2,True,right,approach,neg,insect14_crop.jpg,1,7,1.0,65.0,1,1535.2811,1550.0,7.0,EAT                                    DON'T EAT,1534.8073,1520.6954,1288.5087
67,2,False,right,avoid,pos,meat2_crop.jpg,1,7,1.0,66.0,2,1537.5731,1550.0,7.0,EAT                                    DON'T EAT,1536.8251,1520.6954,1288.5087
68,2,False,right,avoid,pos,meat37_crop.jpg,1,7,1.0,67.0,2,1539.4048,1550.0,7.0,EAT                                    DON'T EAT,1538.8439,1520.6954,1288.5087
69,2,True,right,approach,pos,cake4_crop.jpg,1,7,1.0,68.0,1,1541.7483,1550.0,7.0,EAT                                    DON'T EAT,1540.8618,1520.6954,1288.5087
70,2,False,right,avoid,pos,meat29_crop.jpg,1,7,1.0,69.0,2,1543.5138,1550.0,7.0,EAT                                    DON'T EAT,1542.8806,1520.6954,1288.5087
71,0,False,left,avoid,neg,fungus11_crop.jpg,1,8,1.0,70.0,2,1561.9604,1550.0,8.0,EAT                                    DON'T EAT,1560.8118,1556.7917,1288.5087
72,0,False,left,avoid,neg,fungus16_crop.jpg,1,8,1.0,71.0,2,1563.4016,1550.0,8.0,EAT                                    DON'T EAT,1562.8303,1556.7917,1288.5087
73,0,False,left,avoid,neg,fungus21_crop.jpg,1,8,1.0,72.0,2,1565.4161,1550.0,8.0,EAT                                    DON'T EAT,1564.8488,1556.7917,1288.5087
74,0,False,left,avoid,neg,fungus29_crop.jpg,1,8,1.0,73.0,2,1567.5227,1550.0,8.0,EAT                                    DON'T EAT,1566.8673,1556.7917,1288.5087
75,0,False,left,avoid,neg,fungus37_crop.jpg,1,8,1.0,74.0,2,1569.6744,1550.0,8.0,EAT                                    DON'T EAT,1568.8854,1556.7917,1288.5087
76,0,False,left,avoid,neg,fungus5_crop.jpg,1,8,1.0,75.0,2,1571.5879,1550.0,8.0,EAT                                    DON'T EAT,1570.9033,1556.7917,1288.5087
77,0,False,left,avoid,neg,fungus40_crop.jpg,1,8,1.0,76.0,2,1573.9478,1550.0,8.0,EAT                                    DON'T EAT,1572.922,1556.7917,1288.5087
78,0,True,left,approach,neg,insect29_crop.jpg,1,8,1.0,77.0,1,1575.7007,1550.0,8.0,EAT                                    DON'T EAT,1574.9404,1556.7917,1288.5087
79,0,False,left,avoid,neg,fungus20_crop.jpg,1,8,1.0,78.0,2,1577.7195,1550.0,8.0,EAT                                    DON'T EAT,1576.9584,1556.7917,1288.5087
80,0,True,left,approach,pos,cake8_crop.jpg,1,8,1.0,79.0,1,1579.6945,1550.0,8.0,EAT                                    DON'T EAT,1578.977,1556.7917,1288.5087
81,2,False,left,avoid,pos,meat7_crop.jpg,2,9,1.0,80.0,2,1702.9291,1550.0,9.0,EAT                                    DON'T EAT,1701.0785,1697.0583,1685.5704
82,2,False,left,avoid,pos,meat17_crop.jpg,2,9,1.0,81.0,2,1703.7512,1550.0,9.0,EAT                                    DON'T EAT,1703.0968,1697.0583,1685.5704
83,2,False,left,avoid,pos,meat8_crop.jpg,2,9,1.0,82.0,2,1705.6093,1550.0,9.0,EAT                                    DON'T EAT,1705.1152,1697.0583,1685.5704
84,2,False,left,avoid,pos,meat16_crop.jpg,2,9,1.0,83.0,2,1707.691,1550.0,9.0,EAT                                    DON'T EAT,1707.1334,1697.0583,1685.5704
85,2,False,left,avoid,pos,meat6_crop.jpg,2,9,1.0,84.0,2,1709.6049,1550.0,9.0,EAT                                    DON'T EAT,1709.1517,1697.0583,1685.5704
86,2,True,left,approach,neg,insect12_crop.jpg,2,9,1.0,85.0,1,1711.8326,1550.0,9.0,EAT                                    DON'T EAT,1711.1703,1697.0583,1685.5704
87,2,False,left,avoid,pos,meat4_crop.jpg,2,9,1.0,86.0,2,1713.852,1550.0,9.0,EAT                                    DON'T EAT,1713.1885,1697.0583,1685.5704
88,2,False,left,avoid,pos,meat22_crop.jpg,2,9,1.0,87.0,2,1715.8607,1550.0,9.0,EAT                                    DON'T EAT,1715.2068,1697.0583,1685.5704
89,2,True,left,approach,pos,cake9_crop.jpg,2,9,1.0,88.0,1,1718.4402,1550.0,9.0,EAT                                    DON'T EAT,1717.2251,1697.0583,1685.5704
90,2,False,left,avoid,pos,meat24_crop.jpg,2,9,1.0,89.0,2,1719.9232,1550.0,9.0,EAT                                    DON'T EAT,1719.2434,1697.0583,1685.5704
91,0,False,right,avoid,pos,meat23_crop.jpg,2,10,1.0,90.0,2,1739.7706,1550.0,10.0,EAT                                    DON'T EAT,1738.7262,1734.7063,1685.5704
92,0,False,right,avoid,pos,meat24_crop.jpg,2,10,1.0,91.0,2,1741.2295,1550.0,10.0,EAT                                    DON'T EAT,1740.7446,1734.7063,1685.5704
93,0,False,right,avoid,pos,meat36_crop.jpg,2,10,1.0,92.0,2,1743.2589,1550.0,10.0,EAT                                    DON'T EAT,1742.763,1734.7063,1685.5704
94,0,True,right,approach,pos,cake12_crop.jpg,2,10,1.0,93.0,1,1745.5421,1550.0,10.0,EAT                                    DON'T EAT,1744.7814,1734.7063,1685.5704
95,0,False,right,avoid,pos,meat27_crop.jpg,2,10,1.0,94.0,2,1747.2855,1550.0,10.0,EAT                                    DON'T EAT,1746.7998,1734.7063,1685.5704
96,0,False,right,avoid,pos,meat31_crop.jpg,2,10,1.0,95.0,2,1749.2626,1550.0,10.0,EAT                                    DON'T EAT,1748.8179,1734.7063,1685.5704
97,0,True,right,approach,neg,insect6_crop.jpg,2,10,1.0,96.0,1,1751.476,1550.0,10.0,EAT                                    DON'T EAT,1750.8358,1734.7063,1685.5704
98,0,False,right,avoid,pos,meat30_crop.jpg,2,10,1.0,97.0,2,1753.3612,1550.0,10.0,EAT                                    DON'T EAT,1752.8547,1734.7063,1685.5704
99,0,False,right,avoid,pos,meat22_crop.jpg,2,10,1.0,98.0,2,1755.4006,1550.0,10.0,EAT                                    DON'T EAT,1754.873,1734.7063,1685.5704
100,0,False,right,avoid,pos,meat39_crop.jpg,2,10,1.0,99.0,2,1757.3965,1550.0,10.0,EAT                                    DON'T EAT,1756.8914,1734.7063,1685.5704
101,0,False,right,avoid,neg,fungus4_crop.jpg,2,11,1.0,100.0,2,1776.6914,1550.0,11.0,EAT                                    DON'T EAT,1775.8738,1771.8539,1685.5704
102,0,False,right,avoid,neg,fungus12_crop.jpg,2,11,1.0,101.0,2,1778.5969,1550.0,11.0,EAT                                    DON'T EAT,1777.8918,1771.8539,1685.5704
103,0,True,right,approach,neg,insect9_crop.jpg,2,11,1.0,102.0,1,1780.5875,1550.0,11.0,EAT                                    DON'T EAT,1779.9098,1771.8539,1685.5704
104,0,True,right,approach,pos,cake14_crop.jpg,2,11,1.0,103.0,1,1782.728,1550.0,11.0,EAT                                    DON'T EAT,1781.9288,1771.8539,1685.5704
105,0,False,right,avoid,neg,fungus3_crop.jpg,2,11,1.0,104.0,2,1784.8236,1550.0,11.0,EAT                                    DON'T EAT,1783.9471,1771.8539,1685.5704
106,0,False,right,avoid,neg,fungus32_crop.jpg,2,11,1.0,105.0,2,1786.6716,1550.0,11.0,EAT                                    DON'T EAT,1785.9655,1771.8539,1685.5704
107,0,False,right,avoid,neg,fungus26_crop.jpg,2,11,1.0,106.0,2,1788.5645,1550.0,11.0,EAT                                    DON'T EAT,1787.9839,1771.8539,1685.5704
108,0,False,right,avoid,neg,fungus8_crop.jpg,2,11,1.0,107.0,2,1790.6642,1550.0,11.0,EAT                                    DON'T EAT,1790.0018,1771.8539,1685.5704
109,0,False,right,avoid,neg,fungus31_crop.jpg,2,11,1.0,108.0,2,1792.6229,1550.0,11.0,EAT                                    DON'T EAT,1792.0205,1771.8539,1685.5704
110,0,False,right,avoid,neg,fungus34_crop.jpg,2,11,1.0,109.0,2,1794.6185,1550.0,11.0,EAT                                    DON'T EAT,1794.039,1771.8539,1685.5704
111,2,False,left,avoid,neg,fungus12_crop.jpg,2,12,1.0,110.0,2,1811.5504,1550.0,12.0,EAT                                    DON'T EAT,1810.8027,1806.7827,1685.5704
112,2,False,left,avoid,neg,fungus6_crop.jpg,2,12,1.0,111.0,2,1813.4131,1550.0,12.0,EAT                                    DON'T EAT,1812.8212,1806.7827,1685.5704
113,2,False,left,avoid,neg,fungus39_crop.jpg,2,12,1.0,112.0,2,1815.4601,1550.0,12.0,EAT                                    DON'T EAT,1814.8395,1806.7827,1685.5704
114,2,False,left,avoid,neg,fungus32_crop.jpg,2,12,1.0,113.0,2,1817.3322,1550.0,12.0,EAT                                    DON'T EAT,1816.8578,1806.7827,1685.5704
115,2,False,left,avoid,neg,fungus10_crop.jpg,2,12,1.0,114.0,2,1819.5089,1550.0,12.0,EAT                                    DON'T EAT,1818.876,1806.7827,1685.5704
116,2,True,left,approach,neg,insect11_crop.jpg,2,12,1.0,115.0,1,1821.5074,1550.0,12.0,EAT                                    DON'T EAT,1820.8945,1806.7827,1685.5704
117,2,False,left,avoid,neg,fungus25_crop.jpg,2,12,1.0,116.0,2,1823.4185,1550.0,12.0,EAT                                    DON'T EAT,1822.9127,1806.7827,1685.5704
118,2,False,left,avoid,neg,fungus30_crop.jpg,2,12,1.0,117.0,2,1825.5863,1550.0,12.0,EAT                                    DON'T EAT,1824.9312,1806.7827,1685.5704
119,2,False,left,avoid,neg,fungus19_crop.jpg,2,12,1.0,118.0,2,1827.6116,1550.0,12.0,EAT                                    DON'T EAT,1826.9496,1806.7827,1685.5704
120,2,True,left,approach,pos,cake20_crop.jpg,2,12,1.0,119.0,1,1829.7374,1550.0,12.0,EAT                                    DON'T EAT,1828.9679,1806.7827,1685.5704
121,2,False,left,approach,neg,insect10_crop.jpg,2,13,1.0,120.0,1,1848.056,1550.0,13.0,EAT                                    DON'T EAT,1847.316,1843.2964,1685.5704
122,2,False,left,approach,neg,insect33_crop.jpg,2,13,1.0,121.0,1,1850.0338,1550.0,13.0,EAT                                    DON'T EAT,1849.3348,1843.2964,1685.5704
123,2,False,left,approach,neg,insect30_crop.jpg,2,13,1.0,122.0,1,1851.8184,1550.0,13.0,EAT                                    DON'T EAT,1851.353,1843.2964,1685.5704
124,2,False,left,approach,neg,insect8_crop.jpg,2,13,1.0,123.0,1,1853.8691,1550.0,13.0,EAT                                    DON'T EAT,1853.3715,1843.2964,1685.5704
125,2,False,left,approach,neg,insect37_crop.jpg,2,13,1.0,124.0,1,1856.083,1550.0,13.0,EAT                                    DON'T EAT,1855.3899,1843.2964,1685.5704
126,2,True,left,avoid,neg,fungus28_crop.jpg,2,13,1.0,125.0,2,1858.1067,1550.0,13.0,EAT                                    DON'T EAT,1857.4086,1843.2964,1685.5704
127,2,False,left,approach,neg,insect2_crop.jpg,2,13,1.0,126.0,1,1859.9347,1550.0,13.0,EAT                                    DON'T EAT,1859.4264,1843.2964,1685.5704
128,2,False,left,approach,neg,insect23_crop.jpg,2,13,1.0,127.0,1,1861.9094,1550.0,13.0,EAT                                    DON'T EAT,1861.4447,1843.2964,1685.5704
129,2,False,left,approach,neg,insect21_crop.jpg,2,13,1.0,128.0,1,1863.8533,1550.0,13.0,EAT                                    DON'T EAT,1863.4631,1843.2964,1685.5704
130,2,True,left,avoid,pos,meat5_crop.jpg,2,13,1.0,129.0,2,1866.2269,1550.0,13.0,EAT                                    DON'T EAT,1865.4816,1843.2964,1685.5704
131,1,False,left,approach,neg,insect20_crop.jpg,2,14,1.0,130.0,1,1884.2394,1550.0,14.0,EAT                                    DON'T EAT,1883.1461,1879.1259,1685.5704
132,1,False,left,approach,neg,insect17_crop.jpg,2,14,1.0,131.0,1,1885.6182,1550.0,14.0,EAT                                    DON'T EAT,1885.1644,1879.1259,1685.5704
133,1,False,left,approach,neg,insect14_crop.jpg,2,14,1.0,132.0,1,1887.7107,1550.0,14.0,EAT                                    DON'T EAT,1887.1827,1879.1259,1685.5704
134,1,False,left,approach,neg,insect38_crop.jpg,2,14,1.0,133.0,1,1889.7716,1550.0,14.0,EAT                                    DON'T EAT,1889.2013,1879.1259,1685.5704
135,1,False,left,approach,neg,insect22_crop.jpg,2,14,1.0,134.0,1,1891.896,1550.0,14.0,EAT                                    DON'T EAT,1891.2195,1879.1259,1685.5704
136,1,True,left,avoid,neg,fungus31_crop.jpg,2,14,1.0,135.0,2,1894.4493,1550.0,14.0,EAT                                    DON'T EAT,1893.2374,1879.1259,1685.5704
137,1,False,left,approach,neg,insect36_crop.jpg,2,14,1.0,136.0,1,1895.9758,1550.0,14.0,EAT                                    DON'T EAT,1895.2563,1879.1259,1685.5704
138,1,False,left,approach,neg,insect26_crop.jpg,2,14,1.0,137.0,1,1898.1147,1550.0,14.0,EAT                                    DON'T EAT,1897.2745,1879.1259,1685.5704
139,1,False,left,approach,neg,insect31_crop.jpg,2,14,1.0,138.0,1,1899.8927,1550.0,14.0,EAT                                    DON'T EAT,1899.2928,1879.1259,1685.5704
140,1,True,left,avoid,pos,meat35_crop.jpg,2,14,1.0,139.0,2,1902.0171,1550.0,14.0,EAT                                    DON'T EAT,1901.3114,1879.1259,1685.5704
141,1,False,right,approach,pos,cake8_crop.jpg,2,15,1.0,140.0,1,1922.3054,1550.0,15.0,EAT                                    DON'T EAT,1921.2612,1917.241,1685.5704
142,1,False,right,approach,pos,cake13_crop.jpg,2,15,1.0,141.0,1,1923.9464,1550.0,15.0,EAT                                    DON'T EAT,1923.2794,1917.241,1685.5704
143,1,False,right,approach,pos,cake9_crop.jpg,2,15,1.0,142.0,1,1926.6876,1550.0,15.0,EAT                                    DON'T EAT,1925.2977,1917.241,1685.5704
144,1,False,right,approach,pos,cake17_crop.jpg,2,15,1.0,143.0,1,1927.811,1550.0,15.0,EAT                                    DON'T EAT,1927.3159,1917.241,1685.5704
145,1,False,right,approach,pos,cake25_crop.jpg,2,15,1.0,144.0,1,1930.0115,1550.0,15.0,EAT                                    DON'T EAT,1929.3345,1917.241,1685.5704
146,1,False,right,approach,pos,cake32_crop.jpg,2,15,1.0,145.0,1,1931.9642,1550.0,15.0,EAT                                    DON'T EAT,1931.3529,1917.241,1685.5704
147,1,True,right,avoid,pos,meat4_crop.jpg,2,15,1.0,146.0,2,1934.1436,1550.0,15.0,EAT                                    DON'T EAT,1933.3713,1917.241,1685.5704
148,1,True,right,avoid,neg,fungus1_crop.jpg,2,15,1.0,147.0,2,1936.1714,1550.0,15.0,EAT                                    DON'T EAT,1935.3895,1917.241,1685.5704
149,1,False,right,approach,pos,cake16_crop.jpg,2,15,1.0,148.0,1,1938.253,1550.0,15.0,EAT                                    DON'T EAT,1937.4075,1917.241,1685.5704
150,1,False,right,approach,pos,cake2_crop.jpg,2,15,1.0,149.0,1,1940.0067,1550.0,15.0,EAT                                    DON'T EAT,1939.4261,1917.241,1685.5704
151,2,False,left,approach,pos,cake31_crop.jpg,2,16,1.0,150.0,1,1956.419,1550.0,16.0,EAT                                    DON'T EAT,1955.6731,1951.6527,1685.5704
152,2,True,left,avoid,pos,meat15_crop.jpg,2,16,1.0,151.0,2,1958.3451,1550.0,16.0,EAT                                    DON'T EAT,1957.6914,1951.6527,1685.5704
153,2,True,left,avoid,neg,fungus22_crop.jpg,2,16,1.0,152.0,2,1960.4169,1550.0,16.0,EAT                                    DON'T EAT,1959.7096,1951.6527,1685.5704
154,2,False,left,approach,pos,cake28_crop.jpg,2,16,1.0,153.0,1,1962.2025,1550.0,16.0,EAT                                    DON'T EAT,1961.728,1951.6527,1685.5704
155,2,False,left,approach,pos,cake35_crop.jpg,2,16,1.0,154.0,1,1964.7245,1550.0,16.0,EAT                                    DON'T EAT,1963.7463,1951.6527,1685.5704
156,2,False,left,approach,pos,cake27_crop.jpg,2,16,1.0,155.0,1,1966.418,1550.0,16.0,EAT                                    DON'T EAT,1965.7646,1951.6527,1685.5704
157,2,False,left,approach,pos,cake6_crop.jpg,2,16,1.0,156.0,1,1968.4556,1550.0,16.0,EAT                                    DON'T EAT,1967.7832,1951.6527,1685.5704
158,2,False,left,approach,pos,cake18_crop.jpg,2,16,1.0,157.0,1,1970.3188,1550.0,16.0,EAT                                    DON'T EAT,1969.8018,1951.6527,1685.5704
159,2,False,left,approach,pos,cake29_crop.jpg,2,16,1.0,158.0,1,1972.3666,1550.0,16.0,EAT                                    DON'T EAT,1971.8197,1951.6527,1685.5704
160,2,False,left,approach,pos,cake19_crop.jpg,2,16,1.0,159.0,1,1974.5134,1550.0,16.0,EAT                                    DON'T EAT,1973.838,1951.6527,1685.5704
161,0,False,left,avoid,pos,meat12_crop.jpg,3,17,1.0,160.0,2,2065.9373,1550.0,17.0,EAT                                    DON'T EAT,2064.5466,2060.5264,2048.708
162,0,False,left,avoid,pos,meat23_crop.jpg,3,17,1.0,161.0,2,2067.1353,1550.0,17.0,EAT                                    DON'T EAT,2066.5652,2060.5264,2048.708
163,0,False,left,avoid,pos,meat3_crop.jpg,3,17,1.0,162.0,2,2069.1394,1550.0,17.0,EAT                                    DON'T EAT,2068.5833,2060.5264,2048.708
164,0,False,left,avoid,pos,meat32_crop.jpg,3,17,1.0,163.0,2,2070.9934,1550.0,17.0,EAT                                    DON'T EAT,2070.6016,2060.5264,2048.708
165,0,True,left,approach,pos,cake17_crop.jpg,3,17,1.0,164.0,2,2073.0405,1550.0,17.0,EAT                                    DON'T EAT,2072.62,2060.5264,2048.708
166,0,False,left,avoid,pos,meat2_crop.jpg,3,17,1.0,165.0,2,2075.2637,1550.0,17.0,EAT                                    DON'T EAT,2074.6384,2060.5264,2048.708
167,0,False,left,avoid,pos,meat33_crop.jpg,3,17,1.0,166.0,2,2077.4832,1550.0,17.0,EAT                                    DON'T EAT,2076.6567,2060.5264,2048.708
168,0,False,left,avoid,pos,meat14_crop.jpg,3,17,1.0,167.0,2,2079.3848,1550.0,17.0,EAT                                    DON'T EAT,2078.675,2060.5264,2048.708
169,0,True,left,approach,neg,insect4_crop.jpg,3,17,1.0,168.0,1,2081.4312,1550.0,17.0,EAT                                    DON'T EAT,2080.693,2060.5264,2048.708
170,0,False,left,avoid,pos,meat30_crop.jpg,3,17,1.0,169.0,2,2084.485,1550.0,17.0,EAT                                    DON'T EAT,2082.7117,2060.5264,2048.708
171,1,False,right,avoid,neg,fungus14_crop.jpg,3,18,1.0,170.0,2,2101.0032,1550.0,18.0,EAT                                    DON'T EAT,2100.1091,2096.0894,2048.708
172,1,False,right,avoid,neg,fungus7_crop.jpg,3,18,1.0,171.0,2,2102.9395,1550.0,18.0,EAT                                    DON'T EAT,2102.128,2096.0894,2048.708
173,1,False,right,avoid,neg,fungus13_crop.jpg,3,18,1.0,172.0,2,2104.8528,1550.0,18.0,EAT                                    DON'T EAT,2104.1458,2096.0894,2048.708
174,1,False,right,avoid,neg,fungus21_crop.jpg,3,18,1.0,173.0,2,2106.7644,1550.0,18.0,EAT                                    DON'T EAT,2106.1646,2096.0894,2048.708
175,1,False,right,avoid,neg,fungus20_crop.jpg,3,18,1.0,174.0,2,2108.8586,1550.0,18.0,EAT                                    DON'T EAT,2108.1829,2096.0894,2048.708
176,1,False,right,avoid,neg,fungus2_crop.jpg,3,18,1.0,175.0,2,2110.8533,1550.0,18.0,EAT                                    DON'T EAT,2110.2007,2096.0894,2048.708
177,1,False,right,avoid,neg,fungus36_crop.jpg,3,18,1.0,176.0,2,2112.9812,1550.0,18.0,EAT                                    DON'T EAT,2112.2192,2096.0894,2048.708
178,1,True,right,approach,pos,cake29_crop.jpg,3,18,1.0,177.0,1,2114.9956,1550.0,18.0,EAT                                    DON'T EAT,2114.2373,2096.0894,2048.708
179,1,True,right,approach,neg,insect7_crop.jpg,3,18,1.0,178.0,2,2116.7422,1550.0,18.0,EAT                                    DON'T EAT,2116.2563,2096.0894,2048.708
180,1,False,right,avoid,neg,fungus29_crop.jpg,3,18,1.0,179.0,2,2119.0156,1550.0,18.0,EAT                                    DON'T EAT,2118.2747,2096.0894,2048.708
181,2,True,right,approach,pos,cake39_crop.jpg,3,19,1.0,180.0,1,2135.348,1550.0,19.0,EAT                                    DON'T EAT,2134.5044,2130.5007,2048.708
182,2,False,right,avoid,neg,fungus28_crop.jpg,3,19,1.0,181.0,2,2137.3557,1550.0,19.0,EAT                                    DON'T EAT,2136.523,2130.5007,2048.708
183,2,False,right,avoid,neg,fungus40_crop.jpg,3,19,1.0,182.0,2,2139.1843,1550.0,19.0,EAT                                    DON'T EAT,2138.5413,2130.5007,2048.708
184,2,False,right,avoid,neg,fungus18_crop.jpg,3,19,1.0,183.0,2,2141.2327,1550.0,19.0,EAT                                    DON'T EAT,2140.5593,2130.5007,2048.708
185,2,False,right,avoid,neg,fungus23_crop.jpg,3,19,1.0,184.0,2,2143.2695,1550.0,19.0,EAT                                    DON'T EAT,2142.5781,2130.5007,2048.708
186,2,False,right,avoid,neg,fungus19_crop.jpg,3,19,1.0,185.0,2,2145.176,1550.0,19.0,EAT                                    DON'T EAT,2144.5964,2130.5007,2048.708
187,2,False,right,avoid,neg,fungus33_crop.jpg,3,19,1.0,186.0,2,2147.186,1550.0,19.0,EAT                                    DON'T EAT,2146.6147,2130.5007,2048.708
188,2,False,right,avoid,neg,fungus27_crop.jpg,3,19,1.0,187.0,2,2149.1707,1550.0,19.0,EAT                                    DON'T EAT,2148.633,2130.5007,2048.708
189,2,True,right,approach,neg,insect29_crop.jpg,3,19,1.0,188.0,1,2151.412,1550.0,19.0,EAT                                    DON'T EAT,2150.6511,2130.5007,2048.708
190,2,False,right,avoid,neg,fungus15_crop.jpg,3,19,1.0,189.0,2,2153.364,1550.0,19.0,EAT                                    DON'T EAT,2152.67,2130.5007,2048.708
191,3,False,right,approach,pos,cake33_crop.jpg,3,20,1.0,190.0,1,2170.8882,1550.0,20.0,EAT                                    DON'T EAT,2169.884,2165.8638,2048.708
192,3,False,right,approach,pos,cake20_crop.jpg,3,20,1.0,191.0,1,2172.46,1550.0,20.0,EAT                                    DON'T EAT,2171.9023,2165.8638,2048.708
193,3,False,right,approach,pos,cake35_crop.jpg,3,20,1.0,192.0,1,2174.469,1550.0,20.0,EAT                                    DON'T EAT,2173.9204,2165.8638,2048.708
194,3,True,right,avoid,pos,meat32_crop.jpg,3,20,1.0,193.0,2,2176.7483,1550.0,20.0,EAT                                    DON'T EAT,2175.9392,2165.8638,2048.708
195,3,False,right,approach,pos,cake31_crop.jpg,3,20,1.0,194.0,1,2178.559,1550.0,20.0,EAT                                    DON'T EAT,2177.9573,2165.8638,2048.708
196,3,False,right,approach,pos,cake3_crop.jpg,3,20,1.0,195.0,1,2180.6206,1550.0,20.0,EAT                                    DON'T EAT,2179.9756,2165.8638,2048.708
197,3,False,right,approach,pos,cake28_crop.jpg,3,20,1.0,196.0,1,2182.5793,1550.0,20.0,EAT                                    DON'T EAT,2181.9941,2165.8638,2048.708
198,3,False,right,approach,pos,cake10_crop.jpg,3,20,1.0,197.0,1,2184.5815,1550.0,20.0,EAT                                    DON'T EAT,2184.0125,2165.8638,2048.708
199,3,False,right,approach,pos,cake23_crop.jpg,3,20,1.0,198.0,1,2186.7764,1550.0,20.0,EAT                                    DON'T EAT,2186.031,2165.8638,2048.708
200,3,True,right,avoid,neg,fungus6_crop.jpg,3,20,1.0,199.0,2,2188.8862,1550.0,20.0,EAT                                    DON'T EAT,2188.049,2165.8638,2048.708
201,1,True,left,approach,pos,cake39_crop.jpg,3,21,1.0,200.0,1,2207.8154,1550.0,21.0,EAT                                    DON'T EAT,2207.0315,2203.0112,2048.708
202,1,False,left,avoid,neg,fungus23_crop.jpg,3,21,1.0,201.0,2,2209.745,1550.0,21.0,EAT                                    DON'T EAT,2209.0498,2203.0112,2048.708
203,1,False,left,avoid,neg,fungus9_crop.jpg,3,21,1.0,202.0,2,2211.8616,1550.0,21.0,EAT                                    DON'T EAT,2211.0684,2203.0112,2048.708
204,1,False,left,avoid,neg,fungus27_crop.jpg,3,21,1.0,203.0,2,2213.6455,1550.0,21.0,EAT                                    DON'T EAT,2213.0867,2203.0112,2048.708
205,1,False,left,avoid,neg,fungus18_crop.jpg,3,21,1.0,204.0,2,2215.6328,1550.0,21.0,EAT                                    DON'T EAT,2215.105,2203.0112,2048.708
206,1,False,left,avoid,neg,fungus3_crop.jpg,3,21,1.0,205.0,1,2217.841,1550.0,21.0,EAT                                    DON'T EAT,2217.1233,2203.0112,2048.708
207,1,True,left,approach,neg,insect34_crop.jpg,3,21,1.0,206.0,1,2219.7942,1550.0,21.0,EAT                                    DON'T EAT,2219.1416,2203.0112,2048.708
208,1,False,left,avoid,neg,fungus38_crop.jpg,3,21,1.0,207.0,2,2221.8225,1550.0,21.0,EAT                                    DON'T EAT,2221.16,2203.0112,2048.708
209,1,False,left,avoid,neg,fungus4_crop.jpg,3,21,1.0,208.0,2,2223.715,1550.0,21.0,EAT                                    DON'T EAT,2223.1782,2203.0112,2048.708
210,1,False,left,avoid,neg,fungus33_crop.jpg,3,21,1.0,209.0,2,2225.7246,1550.0,21.0,EAT                                    DON'T EAT,2225.1965,2203.0112,2048.708
211,1,False,left,approach,pos,cake14_crop.jpg,3,22,1.0,210.0,1,2245.0156,1550.0,22.0,EAT                                    DON'T EAT,2243.6453,2239.625,2048.708
212,1,False,left,approach,pos,cake4_crop.jpg,3,22,1.0,211.0,1,2246.266,1550.0,22.0,EAT                                    DON'T EAT,2245.6636,2239.625,2048.708
213,1,True,left,avoid,pos,meat11_crop.jpg,3,22,1.0,212.0,2,2248.4214,1550.0,22.0,EAT                                    DON'T EAT,2247.682,2239.625,2048.708
214,1,False,left,approach,pos,cake16_crop.jpg,3,22,1.0,213.0,1,2250.27,1550.0,22.0,EAT                                    DON'T EAT,2249.7002,2239.625,2048.708
215,1,False,left,approach,pos,cake1_crop.jpg,3,22,1.0,214.0,1,2252.3108,1550.0,22.0,EAT                                    DON'T EAT,2251.7183,2239.625,2048.708
216,1,False,left,approach,pos,cake13_crop.jpg,3,22,1.0,215.0,1,2254.2437,1550.0,22.0,EAT                                    DON'T EAT,2253.7368,2239.625,2048.708
217,1,False,left,approach,pos,cake22_crop.jpg,3,22,1.0,216.0,1,2256.327,1550.0,22.0,EAT                                    DON'T EAT,2255.7554,2239.625,2048.708
218,1,True,left,avoid,neg,fungus26_crop.jpg,3,22,1.0,217.0,2,2258.5532,1550.0,22.0,EAT                                    DON'T EAT,2257.7737,2239.625,2048.708
219,1,False,left,approach,pos,cake30_crop.jpg,3,22,1.0,218.0,1,2260.426,1550.0,22.0,EAT                                    DON'T EAT,2259.7917,2239.625,2048.708
220,1,False,left,approach,pos,cake33_crop.jpg,3,22,1.0,219.0,1,2262.2744,1550.0,22.0,EAT                                    DON'T EAT,2261.8103,2239.625,2048.708
221,3,True,left,approach,pos,cake5_crop.jpg,3,23,1.0,220.0,1,2281.0823,1550.0,23.0,EAT                                    DON'T EAT,2280.3584,2276.3386,2048.708
222,3,True,left,approach,neg,insect28_crop.jpg,3,23,1.0,221.0,1,2283.1177,1550.0,23.0,EAT                                    DON'T EAT,2282.3772,2276.3386,2048.708
223,3,False,left,avoid,neg,fungus1_crop.jpg,3,23,1.0,222.0,2,2285.1023,1550.0,23.0,EAT                                    DON'T EAT,2284.3953,2276.3386,2048.708
224,3,False,left,avoid,neg,fungus34_crop.jpg,3,23,1.0,223.0,2,2287.1716,1550.0,23.0,EAT                                    DON'T EAT,2286.414,2276.3386,2048.708
225,3,False,left,avoid,neg,fungus24_crop.jpg,3,23,1.0,224.0,2,2289.1062,1550.0,23.0,EAT                                    DON'T EAT,2288.4324,2276.3386,2048.708
226,3,False,left,avoid,neg,fungus15_crop.jpg,3,23,1.0,225.0,2,2291.014,1550.0,23.0,EAT                                    DON'T EAT,2290.4502,2276.3386,2048.708
227,3,False,left,avoid,neg,fungus7_crop.jpg,3,23,1.0,226.0,2,2293.0515,1550.0,23.0,EAT                                    DON'T EAT,2292.469,2276.3386,2048.708
228,3,False,left,avoid,neg,fungus35_crop.jpg,3,23,1.0,227.0,2,2294.9724,1550.0,23.0,EAT                                    DON'T EAT,2294.4873,2276.3386,2048.708
229,3,False,left,avoid,neg,fungus36_crop.jpg,3,23,1.0,228.0,2,2297.2122,1550.0,23.0,EAT                                    DON'T EAT,2296.5059,2276.3386,2048.708
230,3,False,left,avoid,neg,fungus14_crop.jpg,3,23,1.0,229.0,2,2299.2756,1550.0,23.0,EAT                                    DON'T EAT,2298.524,2276.3386,2048.708
231,3,False,left,approach,pos,cake36_crop.jpg,3,24,1.0,230.0,1,2318.226,1550.0,24.0,EAT                                    DON'T EAT,2317.5398,2313.5198,2048.708
232,3,False,left,approach,pos,cake23_crop.jpg,3,24,1.0,231.0,1,2320.0742,1550.0,24.0,EAT                                    DON'T EAT,2319.558,2313.5198,2048.708
233,3,True,left,avoid,neg,fungus8_crop.jpg,3,24,1.0,232.0,2,2322.4412,1550.0,24.0,EAT                                    DON'T EAT,2321.5764,2313.5198,2048.708
234,3,False,left,approach,pos,cake11_crop.jpg,3,24,1.0,233.0,1,2324.4268,1550.0,24.0,EAT                                    DON'T EAT,2323.5947,2313.5198,2048.708
235,3,False,left,approach,pos,cake37_crop.jpg,3,24,1.0,234.0,1,2326.478,1550.0,24.0,EAT                                    DON'T EAT,2325.613,2313.5198,2048.708
236,3,True,left,avoid,pos,meat9_crop.jpg,3,24,1.0,235.0,2,2328.401,1550.0,24.0,EAT                                    DON'T EAT,2327.6318,2313.5198,2048.708
237,3,False,left,approach,pos,cake24_crop.jpg,3,24,1.0,236.0,1,2330.8843,1550.0,24.0,EAT                                    DON'T EAT,2329.65,2313.5198,2048.708
238,3,False,left,approach,pos,cake3_crop.jpg,3,24,1.0,237.0,1,2332.3215,1550.0,24.0,EAT                                    DON'T EAT,2331.6682,2313.5198,2048.708
239,3,False,left,approach,pos,cake10_crop.jpg,3,24,1.0,238.0,1,2334.3171,1550.0,24.0,EAT                                    DON'T EAT,2333.6865,2313.5198,2048.708
240,3,False,left,approach,pos,cake7_crop.jpg,3,24,1.0,239.0,1,2336.3162,1550.0,24.0,EAT                                    DON'T EAT,2335.705,2313.5198,2048.708
241,2,False,right,approach,neg,insect30_crop.jpg,4,25,1.0,240.0,1,2427.2854,1550.0,25.0,EAT                                    DON'T EAT,2426.2134,2422.193,2410.429
242,2,False,right,approach,neg,insect10_crop.jpg,4,25,1.0,241.0,1,2428.7593,1550.0,25.0,EAT                                    DON'T EAT,2428.2317,2422.193,2410.429
243,2,False,right,approach,neg,insect33_crop.jpg,4,25,1.0,242.0,1,2430.7124,1550.0,25.0,EAT                                    DON'T EAT,2430.25,2422.193,2410.429
244,2,False,right,approach,neg,insect28_crop.jpg,4,25,1.0,243.0,1,2432.7224,1550.0,25.0,EAT                                    DON'T EAT,2432.2683,2422.193,2410.429
245,2,False,right,approach,neg,insect13_crop.jpg,4,25,1.0,244.0,1,2434.951,1550.0,25.0,EAT                                    DON'T EAT,2434.2866,2422.193,2410.429
246,2,True,right,avoid,neg,fungus5_crop.jpg,4,25,1.0,245.0,2,2437.1367,1550.0,25.0,EAT                                    DON'T EAT,2436.305,2422.193,2410.429
247,2,False,right,approach,neg,insect21_crop.jpg,4,25,1.0,246.0,1,2439.0632,1550.0,25.0,EAT                                    DON'T EAT,2438.323,2422.193,2410.429
248,2,True,right,avoid,pos,meat17_crop.jpg,4,25,1.0,247.0,2,2441.0684,1550.0,25.0,EAT                                    DON'T EAT,2440.3413,2422.193,2410.429
249,2,False,right,approach,neg,insect18_crop.jpg,4,25,1.0,248.0,1,2443.0974,1550.0,25.0,EAT                                    DON'T EAT,2442.36,2422.193,2410.429
250,2,False,right,approach,neg,insect39_crop.jpg,4,25,1.0,249.0,1,2445.1792,1550.0,25.0,EAT                                    DON'T EAT,2444.3782,2422.193,2410.429
251,3,False,right,approach,neg,insect19_crop.jpg,4,26,1.0,250.0,1,2461.744,1550.0,26.0,EAT                                    DON'T EAT,2460.808,2456.7888,2410.429
252,3,False,right,approach,neg,insect17_crop.jpg,4,26,1.0,251.0,1,2463.4421,1550.0,26.0,EAT                                    DON'T EAT,2462.8271,2456.7888,2410.429
253,3,False,right,approach,neg,insect4_crop.jpg,4,26,1.0,252.0,1,2465.4353,1550.0,26.0,EAT                                    DON'T EAT,2464.8452,2456.7888,2410.429
254,3,False,right,approach,neg,insect12_crop.jpg,4,26,1.0,253.0,1,2467.6968,1550.0,26.0,EAT                                    DON'T EAT,2466.8638,2456.7888,2410.429
255,3,True,right,avoid,neg,fungus24_crop.jpg,4,26,1.0,254.0,2,2469.566,1550.0,26.0,EAT                                    DON'T EAT,2468.8818,2456.7888,2410.429
256,3,True,right,avoid,pos,meat28_crop.jpg,4,26,1.0,255.0,2,2471.625,1550.0,26.0,EAT                                    DON'T EAT,2470.9001,2456.7888,2410.429
257,3,False,right,approach,neg,insect40_crop.jpg,4,26,1.0,256.0,1,2473.637,1550.0,26.0,EAT                                    DON'T EAT,2472.9187,2456.7888,2410.429
258,3,False,right,approach,neg,insect34_crop.jpg,4,26,1.0,257.0,1,2475.4531,1550.0,26.0,EAT                                    DON'T EAT,2474.937,2456.7888,2410.429
259,3,False,right,approach,neg,insect5_crop.jpg,4,26,1.0,258.0,1,2477.4548,1550.0,26.0,EAT                                    DON'T EAT,2476.955,2456.7888,2410.429
260,3,False,right,approach,neg,insect15_crop.jpg,4,26,1.0,259.0,1,2479.5022,1550.0,26.0,EAT                                    DON'T EAT,2478.9739,2456.7888,2410.429
261,0,False,left,approach,pos,cake38_crop.jpg,4,27,1.0,260.0,1,2499.768,1550.0,27.0,EAT                                    DON'T EAT,2498.8066,2494.7869,2410.429
262,0,True,left,avoid,neg,fungus13_crop.jpg,4,27,1.0,261.0,2,2501.5835,1550.0,27.0,EAT                                    DON'T EAT,2500.8247,2494.7869,2410.429
263,0,True,left,avoid,pos,meat1_crop.jpg,4,27,1.0,262.0,2,2503.9048,1550.0,27.0,EAT                                    DON'T EAT,2502.8433,2494.7869,2410.429
264,0,False,left,approach,pos,cake40_crop.jpg,4,27,1.0,263.0,1,2505.6716,1550.0,27.0,EAT                                    DON'T EAT,2504.8618,2494.7869,2410.429
265,0,False,left,approach,pos,cake21_crop.jpg,4,27,1.0,264.0,1,2508.0303,1550.0,27.0,EAT                                    DON'T EAT,2506.8804,2494.7869,2410.429
266,0,False,left,approach,pos,cake15_crop.jpg,4,27,1.0,265.0,1,2509.721,1550.0,27.0,EAT                                    DON'T EAT,2508.8987,2494.7869,2410.429
267,0,False,left,approach,pos,cake34_crop.jpg,4,27,1.0,266.0,1,2511.9294,1550.0,27.0,EAT                                    DON'T EAT,2510.917,2494.7869,2410.429
268,0,False,left,approach,pos,cake25_crop.jpg,4,27,1.0,267.0,1,2513.7046,1550.0,27.0,EAT                                    DON'T EAT,2512.9353,2494.7869,2410.429
269,0,False,left,approach,pos,cake26_crop.jpg,4,27,1.0,268.0,1,2515.5537,1550.0,27.0,EAT                                    DON'T EAT,2514.9536,2494.7869,2410.429
270,0,False,left,approach,pos,cake2_crop.jpg,4,27,1.0,269.0,1,2517.796,1550.0,27.0,EAT                                    DON'T EAT,2516.9717,2494.7869,2410.429
271,2,False,right,approach,pos,cake22_crop.jpg,4,28,1.0,270.0,1,2536.663,1550.0,28.0,EAT                                    DON'T EAT,2535.7043,2531.684,2410.429
272,2,True,right,avoid,pos,meat21_crop.jpg,4,28,1.0,271.0,2,2538.474,1550.0,28.0,EAT                                    DON'T EAT,2537.7224,2531.684,2410.429
273,2,False,right,approach,pos,cake36_crop.jpg,4,28,1.0,272.0,1,2540.2163,1550.0,28.0,EAT                                    DON'T EAT,2539.741,2531.684,2410.429
274,2,False,right,approach,pos,cake37_crop.jpg,4,28,1.0,273.0,1,2542.3264,1550.0,28.0,EAT                                    DON'T EAT,2541.7593,2531.684,2410.429
275,2,True,right,avoid,neg,fungus11_crop.jpg,4,28,1.0,274.0,2,2544.6636,1550.0,28.0,EAT                                    DON'T EAT,2543.7776,2531.684,2410.429
276,2,False,right,approach,pos,cake34_crop.jpg,4,28,1.0,275.0,1,2546.3962,1550.0,28.0,EAT                                    DON'T EAT,2545.796,2531.684,2410.429
277,2,False,right,approach,pos,cake5_crop.jpg,4,28,1.0,276.0,1,2548.687,1550.0,28.0,EAT                                    DON'T EAT,2547.8142,2531.684,2410.429
278,2,False,right,approach,pos,cake24_crop.jpg,4,28,1.0,277.0,1,2550.4446,1550.0,28.0,EAT                                    DON'T EAT,2549.8325,2531.684,2410.429
279,2,False,right,approach,pos,cake7_crop.jpg,4,28,1.0,278.0,1,2552.6284,1550.0,28.0,EAT                                    DON'T EAT,2551.8508,2531.684,2410.429
280,2,False,right,approach,pos,cake6_crop.jpg,4,28,1.0,279.0,1,2554.5222,1550.0,28.0,EAT                                    DON'T EAT,2553.869,2531.684,2410.429
281,3,False,right,avoid,neg,fungus39_crop.jpg,4,29,1.0,280.0,2,2573.4343,1550.0,29.0,EAT                                    DON'T EAT,2572.6013,2568.5815,2410.429
282,3,False,right,avoid,neg,fungus10_crop.jpg,4,29,1.0,281.0,2,2575.3787,1550.0,29.0,EAT                                    DON'T EAT,2574.6199,2568.5815,2410.429
283,3,True,right,approach,pos,cake30_crop.jpg,4,29,1.0,282.0,1,2577.4001,1550.0,29.0,EAT                                    DON'T EAT,2576.6382,2568.5815,2410.429
284,3,True,right,approach,neg,insect22_crop.jpg,4,29,1.0,283.0,1,2579.3271,1550.0,29.0,EAT                                    DON'T EAT,2578.6565,2568.5815,2410.429
285,3,False,right,avoid,neg,fungus9_crop.jpg,4,29,1.0,284.0,2,2581.3564,1550.0,29.0,EAT                                    DON'T EAT,2580.6746,2568.5815,2410.429
286,3,False,right,avoid,neg,fungus17_crop.jpg,4,29,1.0,285.0,2,2583.347,1550.0,29.0,EAT                                    DON'T EAT,2582.693,2568.5815,2410.429
287,3,False,right,avoid,neg,fungus30_crop.jpg,4,29,1.0,286.0,2,2585.3662,1550.0,29.0,EAT                                    DON'T EAT,2584.7114,2568.5815,2410.429
288,3,False,right,avoid,neg,fungus25_crop.jpg,4,29,1.0,287.0,2,2587.4343,1550.0,29.0,EAT                                    DON'T EAT,2586.73,2568.5815,2410.429
289,3,False,right,avoid,neg,fungus38_crop.jpg,4,29,1.0,288.0,2,2589.277,1550.0,29.0,EAT                                    DON'T EAT,2588.748,2568.5815,2410.429
290,3,False,right,avoid,neg,fungus35_crop.jpg,4,29,1.0,289.0,2,2591.3918,1550.0,29.0,EAT                                    DON'T EAT,2590.7659,2568.5815,2410.429
291,3,False,right,avoid,pos,meat35_crop.jpg,4,30,1.0,290.0,2,2610.0415,1550.0,30.0,EAT                                    DON'T EAT,2609.0818,2605.0618,2410.429
292,3,False,right,avoid,pos,meat8_crop.jpg,4,30,1.0,291.0,2,2611.6794,1550.0,30.0,EAT                                    DON'T EAT,2611.1,2605.0618,2410.429
293,3,True,right,approach,neg,insect36_crop.jpg,4,30,1.0,292.0,1,2614.2327,1550.0,30.0,EAT                                    DON'T EAT,2613.1184,2605.0618,2410.429
294,3,True,right,approach,pos,cake26_crop.jpg,4,30,1.0,293.0,1,2616.1926,1550.0,30.0,EAT                                    DON'T EAT,2615.1367,2605.0618,2410.429
295,3,False,right,avoid,pos,meat13_crop.jpg,4,30,1.0,294.0,2,2617.786,1550.0,30.0,EAT                                    DON'T EAT,2617.155,2605.0618,2410.429
296,3,False,right,avoid,pos,meat5_crop.jpg,4,30,1.0,295.0,2,2619.7021,1550.0,30.0,EAT                                    DON'T EAT,2619.1733,2605.0618,2410.429
297,3,False,right,avoid,pos,meat1_crop.jpg,4,30,1.0,296.0,2,2621.8967,1550.0,30.0,EAT                                    DON'T EAT,2621.1917,2605.0618,2410.429
298,3,False,right,avoid,pos,meat26_crop.jpg,4,30,1.0,297.0,2,2623.884,1550.0,30.0,EAT                                    DON'T EAT,2623.2102,2605.0618,2410.429
299,3,False,right,avoid,pos,meat6_crop.jpg,4,30,1.0,298.0,2,2625.985,1550.0,30.0,EAT                                    DON'T EAT,2625.2285,2605.0618,2410.429
300,3,False,right,avoid,pos,meat10_crop.jpg,4,30,1.0,299.0,2,2627.9314,1550.0,30.0,EAT                                    DON'T EAT,2627.2468,2605.0618,2410.429
301,0,False,right,approach,neg,insect3_crop.jpg,4,31,1.0,300.0,1,2647.985,1550.0,31.0,EAT                                    DON'T EAT,2647.1965,2643.1768,2410.429
302,0,False,right,approach,neg,insect27_crop.jpg,4,31,1.0,301.0,1,2649.793,1550.0,31.0,EAT                                    DON'T EAT,2649.215,2643.1768,2410.429
303,0,False,right,approach,neg,insect20_crop.jpg,4,31,1.0,302.0,1,2651.9302,1550.0,31.0,EAT                                    DON'T EAT,2651.233,2643.1768,2410.429
304,0,False,right,approach,neg,insect32_crop.jpg,4,31,1.0,303.0,1,2653.8096,1550.0,31.0,EAT                                    DON'T EAT,2653.2517,2643.1768,2410.429
305,0,False,right,approach,neg,insect24_crop.jpg,4,31,1.0,304.0,1,2655.842,1550.0,31.0,EAT                                    DON'T EAT,2655.27,2643.1768,2410.429
306,0,True,right,avoid,pos,meat18_crop.jpg,4,31,1.0,305.0,2,2658.0374,1550.0,31.0,EAT                                    DON'T EAT,2657.2883,2643.1768,2410.429
307,0,False,right,approach,neg,insect1_crop.jpg,4,31,1.0,306.0,1,2660.0193,1550.0,31.0,EAT                                    DON'T EAT,2659.3062,2643.1768,2410.429
308,0,False,right,approach,neg,insect26_crop.jpg,4,31,1.0,307.0,1,2662.0432,1550.0,31.0,EAT                                    DON'T EAT,2661.325,2643.1768,2410.429
309,0,False,right,approach,neg,insect31_crop.jpg,4,31,1.0,308.0,1,2663.9316,1550.0,31.0,EAT                                    DON'T EAT,2663.3433,2643.1768,2410.429
310,0,True,right,avoid,neg,fungus22_crop.jpg,4,31,1.0,309.0,2,2666.027,1550.0,31.0,EAT                                    DON'T EAT,2665.3618,2643.1768,2410.429
311,1,False,right,avoid,pos,meat15_crop.jpg,4,32,1.0,310.0,2,2683.2317,1550.0,32.0,EAT                                    DON'T EAT,2682.359,2678.3555,2410.429
312,1,True,right,approach,pos,cake21_crop.jpg,4,32,1.0,311.0,1,2685.1907,1550.0,32.0,EAT                                    DON'T EAT,2684.3777,2678.3555,2410.429
313,1,False,right,avoid,pos,meat7_crop.jpg,4,32,1.0,312.0,2,2686.9756,1550.0,32.0,EAT                                    DON'T EAT,2686.396,2678.3555,2410.429
314,1,False,right,avoid,pos,meat40_crop.jpg,4,32,1.0,313.0,2,2689.8362,1550.0,32.0,EAT                                    DON'T EAT,2688.414,2678.3555,2410.429
315,1,True,right,approach,neg,insect2_crop.jpg,4,32,1.0,314.0,1,2691.0981,1550.0,32.0,EAT                                    DON'T EAT,2690.4324,2678.3555,2410.429
316,1,False,right,avoid,pos,meat12_crop.jpg,4,32,1.0,315.0,2,2693.1453,1550.0,32.0,EAT                                    DON'T EAT,2692.451,2678.3555,2410.429
317,1,False,right,avoid,pos,meat19_crop.jpg,4,32,1.0,316.0,2,2695.1658,1550.0,32.0,EAT                                    DON'T EAT,2694.4692,2678.3555,2410.429
318,1,False,right,avoid,pos,meat20_crop.jpg,4,32,1.0,317.0,2,2697.0464,1550.0,32.0,EAT                                    DON'T EAT,2696.4875,2678.3555,2410.429
319,1,False,right,avoid,pos,meat16_crop.jpg,4,32,1.0,318.0,2,2699.254,1550.0,32.0,EAT                                    DON'T EAT,2698.5059,2678.3555,2410.429
320,1,False,right,avoid,pos,meat3_crop.jpg,4,32,1.0,319.0,2,2701.082,1550.0,32.0,EAT                                    DON'T EAT,2700.5242,2678.3555,2410.429
