TrialNumber,n_block,catch,hand,mot,val,stim_name,run_number,num_block,ran,order,response,RT,Subject number,n_b,left_side_resp_label,trial_onset,blk_instr_onset,baseline_onset
1,1,False,right,avoid,pos,meat17_crop.jpg,1,1,1.0,0.0,1,2193.1384,3.0,1.0,DON'T EAT                                    EAT,2191.8206,2187.8003,2175.0642
2,1,False,right,avoid,pos,meat37_crop.jpg,1,1,1.0,1.0,1,2194.9468,3.0,1.0,DON'T EAT                                    EAT,2193.839,2187.8003,2175.0642
3,1,True,right,approach,pos,cake28_crop.jpg,1,1,1.0,2.0,--,--,3.0,1.0,DON'T EAT                                    EAT,2195.857,2187.8003,2175.0642
4,1,False,right,avoid,pos,meat9_crop.jpg,1,1,1.0,3.0,1,2199.2969,3.0,1.0,DON'T EAT                                    EAT,2197.8787,2187.8003,2175.0642
5,1,False,right,avoid,pos,meat4_crop.jpg,1,1,1.0,4.0,1,2201.2761,3.0,1.0,DON'T EAT                                    EAT,2199.8955,2187.8003,2175.0642
6,1,True,right,approach,neg,insect29_crop.jpg,1,1,1.0,5.0,--,--,3.0,1.0,DON'T EAT                                    EAT,2201.912,2187.8003,2175.0642
7,1,False,right,avoid,pos,meat31_crop.jpg,1,1,1.0,6.0,1,2204.7314,3.0,1.0,DON'T EAT                                    EAT,2203.9304,2187.8003,2175.0642
8,1,False,right,avoid,pos,meat29_crop.jpg,1,1,1.0,7.0,1,2206.8967,3.0,1.0,DON'T EAT                                    EAT,2205.9487,2187.8003,2175.0642
9,1,False,right,avoid,pos,meat1_crop.jpg,1,1,1.0,8.0,1,2209.0613,3.0,1.0,DON'T EAT                                    EAT,2207.967,2187.8003,2175.0642
10,1,False,right,avoid,pos,meat23_crop.jpg,1,1,1.0,9.0,1,2210.8013,3.0,1.0,DON'T EAT                                    EAT,2209.9856,2187.8003,2175.0642
11,0,False,left,avoid,neg,fungus16_crop.jpg,1,2,1.0,10.0,1,2228.58,3.0,2.0,DON'T EAT                                    EAT,2227.5166,2223.4966,2175.0642
12,0,False,left,avoid,neg,fungus25_crop.jpg,1,2,1.0,11.0,1,2230.402,3.0,2.0,DON'T EAT                                    EAT,2229.5352,2223.4966,2175.0642
13,0,False,left,avoid,neg,fungus10_crop.jpg,1,2,1.0,12.0,1,2232.2725,3.0,2.0,DON'T EAT                                    EAT,2231.5535,2223.4966,2175.0642
14,0,True,left,approach,neg,insect33_crop.jpg,1,2,1.0,13.0,--,--,3.0,2.0,DON'T EAT                                    EAT,2233.5718,2223.4966,2175.0642
15,0,False,left,avoid,neg,fungus22_crop.jpg,1,2,1.0,14.0,1,2236.3376,3.0,2.0,DON'T EAT                                    EAT,2235.59,2223.4966,2175.0642
16,0,False,left,avoid,neg,fungus26_crop.jpg,1,2,1.0,15.0,1,2238.4521,3.0,2.0,DON'T EAT                                    EAT,2237.6086,2223.4966,2175.0642
17,0,False,left,avoid,neg,fungus12_crop.jpg,1,2,1.0,16.0,1,2240.506,3.0,2.0,DON'T EAT                                    EAT,2239.627,2223.4966,2175.0642
18,0,False,left,avoid,neg,fungus32_crop.jpg,1,2,1.0,17.0,1,2242.5315,3.0,2.0,DON'T EAT                                    EAT,2241.6453,2223.4966,2175.0642
19,0,False,left,avoid,neg,fungus14_crop.jpg,1,2,1.0,18.0,1,2244.4556,3.0,2.0,DON'T EAT                                    EAT,2243.6636,2223.4966,2175.0642
20,0,True,left,approach,pos,cake36_crop.jpg,1,2,1.0,19.0,--,--,3.0,2.0,DON'T EAT                                    EAT,2245.6816,2223.4966,2175.0642
21,1,False,right,avoid,neg,fungus32_crop.jpg,1,3,1.0,20.0,1,2263.9695,3.0,3.0,DON'T EAT                                    EAT,2262.9128,2258.8928,2175.0642
22,1,False,right,avoid,neg,fungus6_crop.jpg,1,3,1.0,21.0,1,2265.5012,3.0,3.0,DON'T EAT                                    EAT,2264.931,2258.8928,2175.0642
23,1,False,right,avoid,neg,fungus23_crop.jpg,1,3,1.0,22.0,1,2267.7922,3.0,3.0,DON'T EAT                                    EAT,2266.9495,2258.8928,2175.0642
24,1,True,right,approach,neg,insect4_crop.jpg,1,3,1.0,23.0,--,--,3.0,3.0,DON'T EAT                                    EAT,2268.9678,2258.8928,2175.0642
25,1,False,right,avoid,neg,fungus17_crop.jpg,1,3,1.0,24.0,1,2271.802,3.0,3.0,DON'T EAT                                    EAT,2270.9858,2258.8928,2175.0642
26,1,False,right,avoid,neg,fungus22_crop.jpg,1,3,1.0,25.0,1,2273.7551,3.0,3.0,DON'T EAT                                    EAT,2273.0046,2258.8928,2175.0642
27,1,True,right,approach,pos,cake34_crop.jpg,1,3,1.0,26.0,--,--,3.0,3.0,DON'T EAT                                    EAT,2275.0225,2258.8928,2175.0642
28,1,False,right,avoid,neg,fungus35_crop.jpg,1,3,1.0,27.0,1,2277.7903,3.0,3.0,DON'T EAT                                    EAT,2277.0413,2258.8928,2175.0642
29,1,False,right,avoid,neg,fungus3_crop.jpg,1,3,1.0,28.0,1,2279.9353,3.0,3.0,DON'T EAT                                    EAT,2279.0596,2258.8928,2175.0642
30,1,False,right,avoid,neg,fungus38_crop.jpg,1,3,1.0,29.0,--,--,3.0,3.0,DON'T EAT                                    EAT,2281.0781,2258.8928,2175.0642
31,2,True,right,approach,neg,insect31_crop.jpg,1,4,1.0,30.0,--,--,3.0,4.0,DON'T EAT                                    EAT,2298.2087,2294.1887,2175.0642
32,2,False,right,avoid,pos,meat21_crop.jpg,1,4,1.0,31.0,1,2301.7756,3.0,4.0,DON'T EAT                                    EAT,2300.227,2294.1887,2175.0642
33,2,False,right,avoid,pos,meat39_crop.jpg,1,4,1.0,32.0,1,2302.9224,3.0,4.0,DON'T EAT                                    EAT,2302.2456,2294.1887,2175.0642
34,2,False,right,avoid,pos,meat10_crop.jpg,1,4,1.0,33.0,1,2304.99,3.0,4.0,DON'T EAT                                    EAT,2304.264,2294.1887,2175.0642
35,2,False,right,avoid,pos,meat8_crop.jpg,1,4,1.0,34.0,1,2306.8938,3.0,4.0,DON'T EAT                                    EAT,2306.2822,2294.1887,2175.0642
36,2,True,right,approach,pos,cake21_crop.jpg,1,4,1.0,35.0,--,--,3.0,4.0,DON'T EAT                                    EAT,2308.3,2294.1887,2175.0642
37,2,False,right,avoid,pos,meat3_crop.jpg,1,4,1.0,36.0,1,2311.2908,3.0,4.0,DON'T EAT                                    EAT,2310.3188,2294.1887,2175.0642
38,2,False,right,avoid,pos,meat26_crop.jpg,1,4,1.0,37.0,1,2312.9272,3.0,4.0,DON'T EAT                                    EAT,2312.3372,2294.1887,2175.0642
39,2,False,right,avoid,pos,meat14_crop.jpg,1,4,1.0,38.0,1,2314.4622,3.0,4.0,DON'T EAT                                    EAT,2314.3555,2294.1887,2175.0642
40,2,False,right,avoid,pos,meat27_crop.jpg,1,4,1.0,39.0,1,2317.0486,3.0,4.0,DON'T EAT                                    EAT,2316.374,2294.1887,2175.0642
41,2,False,right,approach,neg,insect19_crop.jpg,1,5,1.0,40.0,--,--,3.0,5.0,DON'T EAT                                    EAT,2336.4072,2332.3872,2175.0642
42,2,False,right,approach,neg,insect11_crop.jpg,1,5,1.0,41.0,--,--,3.0,5.0,DON'T EAT                                    EAT,2338.4255,2332.3872,2175.0642
43,2,True,right,avoid,neg,fungus8_crop.jpg,1,5,1.0,42.0,1,2341.2773,3.0,5.0,DON'T EAT                                    EAT,2340.4438,2332.3872,2175.0642
44,2,False,right,approach,neg,insect30_crop.jpg,1,5,1.0,43.0,--,--,3.0,5.0,DON'T EAT                                    EAT,2342.4622,2332.3872,2175.0642
45,2,False,right,approach,neg,insect26_crop.jpg,1,5,1.0,44.0,--,--,3.0,5.0,DON'T EAT                                    EAT,2344.4807,2332.3872,2175.0642
46,2,False,right,approach,neg,insect27_crop.jpg,1,5,1.0,45.0,--,--,3.0,5.0,DON'T EAT                                    EAT,2346.4988,2332.3872,2175.0642
47,2,True,right,avoid,pos,meat35_crop.jpg,1,5,1.0,46.0,1,2349.3223,3.0,5.0,DON'T EAT                                    EAT,2348.517,2332.3872,2175.0642
48,2,False,right,approach,neg,insect24_crop.jpg,1,5,1.0,47.0,--,--,3.0,5.0,DON'T EAT                                    EAT,2350.5354,2332.3872,2175.0642
49,2,False,right,approach,neg,insect34_crop.jpg,1,5,1.0,48.0,--,--,3.0,5.0,DON'T EAT                                    EAT,2352.554,2332.3872,2175.0642
50,2,False,right,approach,neg,insect1_crop.jpg,1,5,1.0,49.0,--,--,3.0,5.0,DON'T EAT                                    EAT,2354.5723,2332.3872,2175.0642
51,3,False,left,avoid,pos,meat11_crop.jpg,1,6,1.0,50.0,1,2373.2043,3.0,6.0,DON'T EAT                                    EAT,2372.1367,2368.117,2175.0642
52,3,False,left,avoid,pos,meat10_crop.jpg,1,6,1.0,51.0,1,2374.8826,3.0,6.0,DON'T EAT                                    EAT,2374.1553,2368.117,2175.0642
53,3,False,left,avoid,pos,meat14_crop.jpg,1,6,1.0,52.0,1,2376.7559,3.0,6.0,DON'T EAT                                    EAT,2376.1736,2368.117,2175.0642
54,3,False,left,avoid,pos,meat32_crop.jpg,1,6,1.0,53.0,1,2378.7664,3.0,6.0,DON'T EAT                                    EAT,2378.192,2368.117,2175.0642
55,3,True,left,approach,neg,insect4_crop.jpg,1,6,1.0,54.0,--,--,3.0,6.0,DON'T EAT                                    EAT,2380.2102,2368.117,2175.0642
56,3,False,left,avoid,pos,meat5_crop.jpg,1,6,1.0,55.0,1,2382.997,3.0,6.0,DON'T EAT                                    EAT,2382.2285,2368.117,2175.0642
57,3,True,left,approach,pos,cake12_crop.jpg,1,6,1.0,56.0,--,--,3.0,6.0,DON'T EAT                                    EAT,2384.2468,2368.117,2175.0642
58,3,False,left,avoid,pos,meat31_crop.jpg,1,6,1.0,57.0,1,2387.0151,3.0,6.0,DON'T EAT                                    EAT,2386.2651,2368.117,2175.0642
59,3,False,left,avoid,pos,meat27_crop.jpg,1,6,1.0,58.0,1,2389.1677,3.0,6.0,DON'T EAT                                    EAT,2388.2837,2368.117,2175.0642
60,3,False,left,avoid,pos,meat2_crop.jpg,1,6,1.0,59.0,1,2390.8953,3.0,6.0,DON'T EAT                                    EAT,2390.302,2368.117,2175.0642
61,1,False,left,avoid,neg,fungus38_crop.jpg,1,7,1.0,60.0,1,2410.4075,3.0,7.0,DON'T EAT                                    EAT,2409.618,2405.5977,2175.0642
62,1,False,left,avoid,neg,fungus34_crop.jpg,1,7,1.0,61.0,1,2412.4285,3.0,7.0,DON'T EAT                                    EAT,2411.6365,2405.5977,2175.0642
63,1,False,left,avoid,neg,fungus9_crop.jpg,1,7,1.0,62.0,1,2414.2263,3.0,7.0,DON'T EAT                                    EAT,2413.6548,2405.5977,2175.0642
64,1,False,left,avoid,neg,fungus28_crop.jpg,1,7,1.0,63.0,1,2416.2224,3.0,7.0,DON'T EAT                                    EAT,2415.673,2405.5977,2175.0642
65,1,False,left,avoid,neg,fungus20_crop.jpg,1,7,1.0,64.0,1,2418.3547,3.0,7.0,DON'T EAT                                    EAT,2417.6914,2405.5977,2175.0642
66,1,True,left,approach,neg,insect19_crop.jpg,1,7,1.0,65.0,--,--,3.0,7.0,DON'T EAT                                    EAT,2419.7097,2405.5977,2175.0642
67,1,False,left,avoid,neg,fungus33_crop.jpg,1,7,1.0,66.0,1,2422.508,3.0,7.0,DON'T EAT                                    EAT,2421.7278,2405.5977,2175.0642
68,1,False,left,avoid,neg,fungus21_crop.jpg,1,7,1.0,67.0,1,2424.3528,3.0,7.0,DON'T EAT                                    EAT,2423.7466,2405.5977,2175.0642
69,1,False,left,avoid,neg,fungus27_crop.jpg,1,7,1.0,68.0,1,2426.376,3.0,7.0,DON'T EAT                                    EAT,2425.7644,2405.5977,2175.0642
70,1,True,left,approach,pos,cake9_crop.jpg,1,7,1.0,69.0,--,--,3.0,7.0,DON'T EAT                                    EAT,2427.7832,2405.5977,2175.0642
71,3,True,right,avoid,pos,meat13_crop.jpg,1,8,1.0,70.0,1,2448.0977,3.0,8.0,DON'T EAT                                    EAT,2447.116,2443.0957,2175.0642
72,3,False,right,approach,pos,cake11_crop.jpg,1,8,1.0,71.0,--,--,3.0,8.0,DON'T EAT                                    EAT,2449.134,2443.0957,2175.0642
73,3,False,right,approach,pos,cake14_crop.jpg,1,8,1.0,72.0,--,--,3.0,8.0,DON'T EAT                                    EAT,2451.1526,2443.0957,2175.0642
74,3,False,right,approach,pos,cake13_crop.jpg,1,8,1.0,73.0,--,--,3.0,8.0,DON'T EAT                                    EAT,2453.1702,2443.0957,2175.0642
75,3,False,right,approach,pos,cake32_crop.jpg,1,8,1.0,74.0,--,--,3.0,8.0,DON'T EAT                                    EAT,2455.1892,2443.0957,2175.0642
76,3,False,right,approach,pos,cake16_crop.jpg,1,8,1.0,75.0,--,--,3.0,8.0,DON'T EAT                                    EAT,2457.2075,2443.0957,2175.0642
77,3,False,right,approach,pos,cake4_crop.jpg,1,8,1.0,76.0,--,--,3.0,8.0,DON'T EAT                                    EAT,2459.2258,2443.0957,2175.0642
78,3,True,right,avoid,neg,fungus10_crop.jpg,1,8,1.0,77.0,1,2461.9644,3.0,8.0,DON'T EAT                                    EAT,2461.2444,2443.0957,2175.0642
79,3,False,right,approach,pos,cake39_crop.jpg,1,8,1.0,78.0,--,--,3.0,8.0,DON'T EAT                                    EAT,2463.2625,2443.0957,2175.0642
80,3,False,right,approach,pos,cake30_crop.jpg,1,8,1.0,79.0,--,--,3.0,8.0,DON'T EAT                                    EAT,2465.2808,2443.0957,2175.0642
81,2,False,left,approach,pos,cake28_crop.jpg,2,9,1.0,80.0,--,--,3.0,9.0,DON'T EAT                                    EAT,2581.4104,2577.3906,2563.3765
82,2,False,left,approach,pos,cake22_crop.jpg,2,9,1.0,81.0,--,--,3.0,9.0,DON'T EAT                                    EAT,2583.429,2577.3906,2563.3765
83,2,True,left,avoid,neg,fungus17_crop.jpg,2,9,1.0,82.0,1,2586.3887,3.0,9.0,DON'T EAT                                    EAT,2585.4473,2577.3906,2563.3765
84,2,False,left,approach,pos,cake27_crop.jpg,2,9,1.0,83.0,--,--,3.0,9.0,DON'T EAT                                    EAT,2587.4658,2577.3906,2563.3765
85,2,True,left,avoid,pos,meat6_crop.jpg,2,9,1.0,84.0,1,2590.3906,3.0,9.0,DON'T EAT                                    EAT,2589.484,2577.3906,2563.3765
86,2,False,left,approach,pos,cake26_crop.jpg,2,9,1.0,85.0,--,--,3.0,9.0,DON'T EAT                                    EAT,2591.5022,2577.3906,2563.3765
87,2,False,left,approach,pos,cake33_crop.jpg,2,9,1.0,86.0,--,--,3.0,9.0,DON'T EAT                                    EAT,2593.5208,2577.3906,2563.3765
88,2,False,left,approach,pos,cake25_crop.jpg,2,9,1.0,87.0,--,--,3.0,9.0,DON'T EAT                                    EAT,2595.539,2577.3906,2563.3765
89,2,False,left,approach,pos,cake11_crop.jpg,2,9,1.0,88.0,--,--,3.0,9.0,DON'T EAT                                    EAT,2597.5574,2577.3906,2563.3765
90,2,False,left,approach,pos,cake15_crop.jpg,2,9,1.0,89.0,--,--,3.0,9.0,DON'T EAT                                    EAT,2599.5754,2577.3906,2563.3765
91,2,False,left,approach,neg,insect38_crop.jpg,2,10,1.0,90.0,--,--,3.0,10.0,DON'T EAT                                    EAT,2616.7065,2612.6865,2563.3765
92,2,True,left,avoid,neg,fungus37_crop.jpg,2,10,1.0,91.0,--,--,3.0,10.0,DON'T EAT                                    EAT,2618.725,2612.6865,2563.3765
93,2,False,left,approach,neg,insect26_crop.jpg,2,10,1.0,92.0,--,--,3.0,10.0,DON'T EAT                                    EAT,2620.7434,2612.6865,2563.3765
94,2,False,left,approach,neg,insect5_crop.jpg,2,10,1.0,93.0,--,--,3.0,10.0,DON'T EAT                                    EAT,2622.7617,2612.6865,2563.3765
95,2,False,left,approach,neg,insect37_crop.jpg,2,10,1.0,94.0,--,--,3.0,10.0,DON'T EAT                                    EAT,2624.78,2612.6865,2563.3765
96,2,False,left,approach,neg,insect12_crop.jpg,2,10,1.0,95.0,--,--,3.0,10.0,DON'T EAT                                    EAT,2626.7983,2612.6865,2563.3765
97,2,False,left,approach,neg,insect39_crop.jpg,2,10,1.0,96.0,--,--,3.0,10.0,DON'T EAT                                    EAT,2628.8167,2612.6865,2563.3765
98,2,False,left,approach,neg,insect3_crop.jpg,2,10,1.0,97.0,--,--,3.0,10.0,DON'T EAT                                    EAT,2630.8352,2612.6865,2563.3765
99,2,False,left,approach,neg,insect20_crop.jpg,2,10,1.0,98.0,--,--,3.0,10.0,DON'T EAT                                    EAT,2632.8535,2612.6865,2563.3765
100,2,True,left,avoid,pos,meat23_crop.jpg,2,10,1.0,99.0,1,2635.9165,3.0,10.0,DON'T EAT                                    EAT,2634.8713,2612.6865,2563.3765
101,2,False,right,approach,pos,cake33_crop.jpg,2,11,1.0,100.0,--,--,3.0,11.0,DON'T EAT                                    EAT,2654.3545,2650.3347,2563.3765
102,2,False,right,approach,pos,cake10_crop.jpg,2,11,1.0,101.0,--,--,3.0,11.0,DON'T EAT                                    EAT,2656.373,2650.3347,2563.3765
103,2,False,right,approach,pos,cake40_crop.jpg,2,11,1.0,102.0,--,--,3.0,11.0,DON'T EAT                                    EAT,2658.391,2650.3347,2563.3765
104,2,False,right,approach,pos,cake26_crop.jpg,2,11,1.0,103.0,--,--,3.0,11.0,DON'T EAT                                    EAT,2660.4094,2650.3347,2563.3765
105,2,True,right,avoid,pos,meat15_crop.jpg,2,11,1.0,104.0,1,2663.569,3.0,11.0,DON'T EAT                                    EAT,2662.428,2650.3347,2563.3765
106,2,False,right,approach,pos,cake29_crop.jpg,2,11,1.0,105.0,--,--,3.0,11.0,DON'T EAT                                    EAT,2664.446,2650.3347,2563.3765
107,2,True,right,avoid,neg,fungus30_crop.jpg,2,11,1.0,106.0,1,2667.3508,3.0,11.0,DON'T EAT                                    EAT,2666.4644,2650.3347,2563.3765
108,2,False,right,approach,pos,cake20_crop.jpg,2,11,1.0,107.0,--,--,3.0,11.0,DON'T EAT                                    EAT,2668.483,2650.3347,2563.3765
109,2,False,right,approach,pos,cake12_crop.jpg,2,11,1.0,108.0,--,--,3.0,11.0,DON'T EAT                                    EAT,2670.5012,2650.3347,2563.3765
110,2,False,right,approach,pos,cake35_crop.jpg,2,11,1.0,109.0,--,--,3.0,11.0,DON'T EAT                                    EAT,2672.5198,2650.3347,2563.3765
111,1,True,right,avoid,pos,meat2_crop.jpg,2,12,1.0,110.0,1,2693.0698,3.0,12.0,DON'T EAT                                    EAT,2691.8857,2687.882,2563.3765
112,1,False,right,approach,neg,insect12_crop.jpg,2,12,1.0,111.0,--,--,3.0,12.0,DON'T EAT                                    EAT,2693.9043,2687.882,2563.3765
113,1,False,right,approach,neg,insect32_crop.jpg,2,12,1.0,112.0,--,--,3.0,12.0,DON'T EAT                                    EAT,2695.9226,2687.882,2563.3765
114,1,False,right,approach,neg,insect13_crop.jpg,2,12,1.0,113.0,--,--,3.0,12.0,DON'T EAT                                    EAT,2697.941,2687.882,2563.3765
115,1,False,right,approach,neg,insect2_crop.jpg,2,12,1.0,114.0,--,--,3.0,12.0,DON'T EAT                                    EAT,2699.9592,2687.882,2563.3765
116,1,False,right,approach,neg,insect40_crop.jpg,2,12,1.0,115.0,--,--,3.0,12.0,DON'T EAT                                    EAT,2701.9775,2687.882,2563.3765
117,1,False,right,approach,neg,insect28_crop.jpg,2,12,1.0,116.0,--,--,3.0,12.0,DON'T EAT                                    EAT,2703.9958,2687.882,2563.3765
118,1,False,right,approach,neg,insect22_crop.jpg,2,12,1.0,117.0,--,--,3.0,12.0,DON'T EAT                                    EAT,2706.0142,2687.882,2563.3765
119,1,True,right,avoid,neg,fungus1_crop.jpg,2,12,1.0,118.0,1,2709.002,3.0,12.0,DON'T EAT                                    EAT,2708.0322,2687.882,2563.3765
120,1,False,right,approach,neg,insect25_crop.jpg,2,12,1.0,119.0,--,--,3.0,12.0,DON'T EAT                                    EAT,2710.0508,2687.882,2563.3765
121,3,False,right,avoid,neg,fungus14_crop.jpg,2,13,1.0,120.0,1,2730.6685,3.0,13.0,DON'T EAT                                    EAT,2729.6172,2725.5972,2563.3765
122,3,False,right,avoid,neg,fungus2_crop.jpg,2,13,1.0,121.0,1,2732.567,3.0,13.0,DON'T EAT                                    EAT,2731.6355,2725.5972,2563.3765
123,3,False,right,avoid,neg,fungus16_crop.jpg,2,13,1.0,122.0,1,2734.5266,3.0,13.0,DON'T EAT                                    EAT,2733.654,2725.5972,2563.3765
124,3,True,right,approach,neg,insect15_crop.jpg,2,13,1.0,123.0,--,--,3.0,13.0,DON'T EAT                                    EAT,2735.672,2725.5972,2563.3765
125,3,False,right,avoid,neg,fungus27_crop.jpg,2,13,1.0,124.0,1,2738.5955,3.0,13.0,DON'T EAT                                    EAT,2737.6904,2725.5972,2563.3765
126,3,False,right,avoid,neg,fungus11_crop.jpg,2,13,1.0,125.0,1,2740.5735,3.0,13.0,DON'T EAT                                    EAT,2739.7083,2725.5972,2563.3765
127,3,False,right,avoid,neg,fungus40_crop.jpg,2,13,1.0,126.0,1,2742.5383,3.0,13.0,DON'T EAT                                    EAT,2741.7273,2725.5972,2563.3765
128,3,False,right,avoid,neg,fungus34_crop.jpg,2,13,1.0,127.0,1,2744.3806,3.0,13.0,DON'T EAT                                    EAT,2743.7456,2725.5972,2563.3765
129,3,False,right,avoid,neg,fungus31_crop.jpg,2,13,1.0,128.0,1,2746.5864,3.0,13.0,DON'T EAT                                    EAT,2745.764,2725.5972,2563.3765
130,3,True,right,approach,pos,cake2_crop.jpg,2,13,1.0,129.0,--,--,3.0,13.0,DON'T EAT                                    EAT,2747.7822,2725.5972,2563.3765
131,3,False,right,avoid,pos,meat38_crop.jpg,2,14,1.0,130.0,1,2766.8958,3.0,14.0,DON'T EAT                                    EAT,2765.764,2761.744,2563.3765
132,3,True,right,approach,neg,insect21_crop.jpg,2,14,1.0,131.0,--,--,3.0,14.0,DON'T EAT                                    EAT,2767.7822,2761.744,2563.3765
133,3,False,right,avoid,pos,meat34_crop.jpg,2,14,1.0,132.0,1,2771.2434,3.0,14.0,DON'T EAT                                    EAT,2769.8,2761.744,2563.3765
134,3,True,right,approach,pos,cake8_crop.jpg,2,14,1.0,133.0,--,--,3.0,14.0,DON'T EAT                                    EAT,2771.8188,2761.744,2563.3765
135,3,False,right,avoid,pos,meat28_crop.jpg,2,14,1.0,134.0,1,2774.7231,3.0,14.0,DON'T EAT                                    EAT,2773.8372,2761.744,2563.3765
136,3,False,right,avoid,pos,meat20_crop.jpg,2,14,1.0,135.0,1,2776.7734,3.0,14.0,DON'T EAT                                    EAT,2775.8555,2761.744,2563.3765
137,3,False,right,avoid,pos,meat25_crop.jpg,2,14,1.0,136.0,1,2779.6038,3.0,14.0,DON'T EAT                                    EAT,2777.874,2761.744,2563.3765
138,3,False,right,avoid,pos,meat22_crop.jpg,2,14,1.0,137.0,1,2780.5593,3.0,14.0,DON'T EAT                                    EAT,2779.892,2761.744,2563.3765
139,3,False,right,avoid,pos,meat12_crop.jpg,2,14,1.0,138.0,1,2782.5623,3.0,14.0,DON'T EAT                                    EAT,2781.9106,2761.744,2563.3765
140,3,False,right,avoid,pos,meat40_crop.jpg,2,14,1.0,139.0,1,2784.5388,3.0,14.0,DON'T EAT                                    EAT,2783.929,2761.744,2563.3765
141,0,False,right,avoid,pos,meat32_crop.jpg,2,15,1.0,140.0,1,2803.9326,3.0,15.0,DON'T EAT                                    EAT,2803.1113,2799.0916,2563.3765
142,0,False,right,avoid,pos,meat18_crop.jpg,2,15,1.0,141.0,1,2806.2388,3.0,15.0,DON'T EAT                                    EAT,2805.13,2799.0916,2563.3765
143,0,False,right,avoid,pos,meat36_crop.jpg,2,15,1.0,142.0,1,2807.9583,3.0,15.0,DON'T EAT                                    EAT,2807.148,2799.0916,2563.3765
144,0,False,right,avoid,pos,meat7_crop.jpg,2,15,1.0,143.0,1,2809.854,3.0,15.0,DON'T EAT                                    EAT,2809.1665,2799.0916,2563.3765
145,0,False,right,avoid,pos,meat24_crop.jpg,2,15,1.0,144.0,1,2811.8054,3.0,15.0,DON'T EAT                                    EAT,2811.1846,2799.0916,2563.3765
146,0,False,right,avoid,pos,meat16_crop.jpg,2,15,1.0,145.0,1,2813.8584,3.0,15.0,DON'T EAT                                    EAT,2813.2034,2799.0916,2563.3765
147,0,True,right,approach,neg,insect17_crop.jpg,2,15,1.0,146.0,--,--,3.0,15.0,DON'T EAT                                    EAT,2815.2217,2799.0916,2563.3765
148,0,False,right,avoid,pos,meat19_crop.jpg,2,15,1.0,147.0,1,2818.0652,3.0,15.0,DON'T EAT                                    EAT,2817.24,2799.0916,2563.3765
149,0,True,right,approach,pos,cake38_crop.jpg,2,15,1.0,148.0,--,--,3.0,15.0,DON'T EAT                                    EAT,2819.2583,2799.0916,2563.3765
150,0,False,right,avoid,pos,meat11_crop.jpg,2,15,1.0,149.0,1,2822.1526,3.0,15.0,DON'T EAT                                    EAT,2821.2766,2799.0916,2563.3765
151,0,False,left,approach,pos,cake16_crop.jpg,2,16,1.0,150.0,--,--,3.0,16.0,DON'T EAT                                    EAT,2839.692,2835.6716,2563.3765
152,0,False,left,approach,pos,cake20_crop.jpg,2,16,1.0,151.0,--,--,3.0,16.0,DON'T EAT                                    EAT,2841.7102,2835.6716,2563.3765
153,0,False,left,approach,pos,cake3_crop.jpg,2,16,1.0,152.0,--,--,3.0,16.0,DON'T EAT                                    EAT,2843.7285,2835.6716,2563.3765
154,0,True,left,avoid,pos,meat26_crop.jpg,2,16,1.0,153.0,1,2847.0051,3.0,16.0,DON'T EAT                                    EAT,2845.747,2835.6716,2563.3765
155,0,False,left,approach,pos,cake29_crop.jpg,2,16,1.0,154.0,--,--,3.0,16.0,DON'T EAT                                    EAT,2847.7651,2835.6716,2563.3765
156,0,False,left,approach,pos,cake7_crop.jpg,2,16,1.0,155.0,--,--,3.0,16.0,DON'T EAT                                    EAT,2849.7832,2835.6716,2563.3765
157,0,False,left,approach,pos,cake19_crop.jpg,2,16,1.0,156.0,--,--,3.0,16.0,DON'T EAT                                    EAT,2851.802,2835.6716,2563.3765
158,0,True,left,avoid,neg,fungus4_crop.jpg,2,16,1.0,157.0,1,2854.7234,3.0,16.0,DON'T EAT                                    EAT,2853.8203,2835.6716,2563.3765
159,0,False,left,approach,pos,cake23_crop.jpg,2,16,1.0,158.0,--,--,3.0,16.0,DON'T EAT                                    EAT,2855.8384,2835.6716,2563.3765
160,0,False,left,approach,pos,cake32_crop.jpg,2,16,1.0,159.0,--,--,3.0,16.0,DON'T EAT                                    EAT,2857.857,2835.6716,2563.3765
161,0,True,left,avoid,neg,fungus8_crop.jpg,3,17,1.0,160.0,1,2958.7969,3.0,17.0,DON'T EAT                                    EAT,2958.0564,2954.0369,2943.9653
162,0,False,left,approach,neg,insect23_crop.jpg,3,17,1.0,161.0,--,--,3.0,17.0,DON'T EAT                                    EAT,2960.0752,2954.0369,2943.9653
163,0,False,left,approach,neg,insect6_crop.jpg,3,17,1.0,162.0,--,--,3.0,17.0,DON'T EAT                                    EAT,2962.0938,2954.0369,2943.9653
164,0,False,left,approach,neg,insect16_crop.jpg,3,17,1.0,163.0,--,--,3.0,17.0,DON'T EAT                                    EAT,2964.112,2954.0369,2943.9653
165,0,False,left,approach,neg,insect11_crop.jpg,3,17,1.0,164.0,--,--,3.0,17.0,DON'T EAT                                    EAT,2966.1304,2954.0369,2943.9653
166,0,False,left,approach,neg,insect10_crop.jpg,3,17,1.0,165.0,--,--,3.0,17.0,DON'T EAT                                    EAT,2968.1484,2954.0369,2943.9653
167,0,True,left,avoid,pos,meat21_crop.jpg,3,17,1.0,166.0,1,2970.8418,3.0,17.0,DON'T EAT                                    EAT,2970.167,2954.0369,2943.9653
168,0,False,left,approach,neg,insect40_crop.jpg,3,17,1.0,167.0,--,--,3.0,17.0,DON'T EAT                                    EAT,2972.1853,2954.0369,2943.9653
169,0,False,left,approach,neg,insect8_crop.jpg,3,17,1.0,168.0,--,--,3.0,17.0,DON'T EAT                                    EAT,2974.2036,2954.0369,2943.9653
170,0,False,left,approach,neg,insect36_crop.jpg,3,17,1.0,169.0,--,--,3.0,17.0,DON'T EAT                                    EAT,2976.2222,2954.0369,2943.9653
171,2,False,left,avoid,neg,fungus5_crop.jpg,3,18,1.0,170.0,1,2995.8677,3.0,18.0,DON'T EAT                                    EAT,2995.0376,2991.0176,2943.9653
172,2,False,left,avoid,neg,fungus29_crop.jpg,3,18,1.0,171.0,1,2998.399,3.0,18.0,DON'T EAT                                    EAT,2997.0557,2991.0176,2943.9653
173,2,False,left,avoid,neg,fungus31_crop.jpg,3,18,1.0,172.0,1,2999.7278,3.0,18.0,DON'T EAT                                    EAT,2999.0742,2991.0176,2943.9653
174,2,False,left,avoid,neg,fungus19_crop.jpg,3,18,1.0,173.0,1,3001.6743,3.0,18.0,DON'T EAT                                    EAT,3001.0925,2991.0176,2943.9653
175,2,True,left,approach,pos,cake4_crop.jpg,3,18,1.0,174.0,--,--,3.0,18.0,DON'T EAT                                    EAT,3003.111,2991.0176,2943.9653
176,2,False,left,avoid,neg,fungus6_crop.jpg,3,18,1.0,175.0,1,3005.837,3.0,18.0,DON'T EAT                                    EAT,3005.1294,2991.0176,2943.9653
177,2,True,left,approach,neg,insect14_crop.jpg,3,18,1.0,176.0,--,--,3.0,18.0,DON'T EAT                                    EAT,3007.1477,2991.0176,2943.9653
178,2,False,left,avoid,neg,fungus40_crop.jpg,3,18,1.0,177.0,1,3009.8079,3.0,18.0,DON'T EAT                                    EAT,3009.166,2991.0176,2943.9653
179,2,False,left,avoid,neg,fungus24_crop.jpg,3,18,1.0,178.0,1,3011.9546,3.0,18.0,DON'T EAT                                    EAT,3011.1843,2991.0176,2943.9653
180,2,False,left,avoid,neg,fungus3_crop.jpg,3,18,1.0,179.0,1,3014.0066,3.0,18.0,DON'T EAT                                    EAT,3013.2026,2991.0176,2943.9653
181,1,False,left,avoid,pos,meat18_crop.jpg,3,19,1.0,180.0,1,3034.0757,3.0,19.0,DON'T EAT                                    EAT,3033.1357,3029.1157,2943.9653
182,1,False,left,avoid,pos,meat36_crop.jpg,3,19,1.0,181.0,1,3035.6907,3.0,19.0,DON'T EAT                                    EAT,3035.1543,3029.1157,2943.9653
183,1,True,left,approach,pos,cake6_crop.jpg,3,19,1.0,182.0,--,--,3.0,19.0,DON'T EAT                                    EAT,3037.1726,3029.1157,2943.9653
184,1,False,left,avoid,pos,meat20_crop.jpg,3,19,1.0,183.0,1,3039.6558,3.0,19.0,DON'T EAT                                    EAT,3039.191,3029.1157,2943.9653
185,1,False,left,avoid,pos,meat15_crop.jpg,3,19,1.0,184.0,1,3041.906,3.0,19.0,DON'T EAT                                    EAT,3041.2092,3029.1157,2943.9653
186,1,False,left,avoid,pos,meat3_crop.jpg,3,19,1.0,185.0,1,3043.999,3.0,19.0,DON'T EAT                                    EAT,3043.2275,3029.1157,2943.9653
187,1,False,left,avoid,pos,meat13_crop.jpg,3,19,1.0,186.0,1,3045.9302,3.0,19.0,DON'T EAT                                    EAT,3045.2458,3029.1157,2943.9653
188,1,False,left,avoid,pos,meat29_crop.jpg,3,19,1.0,187.0,1,3047.981,3.0,19.0,DON'T EAT                                    EAT,3047.2644,3029.1157,2943.9653
189,1,False,left,avoid,pos,meat9_crop.jpg,3,19,1.0,188.0,1,3050.2168,3.0,19.0,DON'T EAT                                    EAT,3049.2827,3029.1157,2943.9653
190,1,True,left,approach,neg,insect25_crop.jpg,3,19,1.0,189.0,--,--,3.0,19.0,DON'T EAT                                    EAT,3051.301,3029.1157,2943.9653
191,0,True,left,approach,neg,insect1_crop.jpg,3,20,1.0,190.0,--,--,3.0,20.0,DON'T EAT                                    EAT,3068.5146,3064.495,2943.9653
192,0,False,left,avoid,pos,meat39_crop.jpg,3,20,1.0,191.0,1,3071.374,3.0,20.0,DON'T EAT                                    EAT,3070.5332,3064.495,2943.9653
193,0,True,left,approach,pos,cake5_crop.jpg,3,20,1.0,192.0,--,--,3.0,20.0,DON'T EAT                                    EAT,3072.5515,3064.495,2943.9653
194,0,False,left,avoid,pos,meat24_crop.jpg,3,20,1.0,193.0,1,3075.2468,3.0,20.0,DON'T EAT                                    EAT,3074.5698,3064.495,2943.9653
195,0,False,left,avoid,pos,meat17_crop.jpg,3,20,1.0,194.0,1,3077.3948,3.0,20.0,DON'T EAT                                    EAT,3076.5881,3064.495,2943.9653
196,0,False,left,avoid,pos,meat40_crop.jpg,3,20,1.0,195.0,1,3079.1077,3.0,20.0,DON'T EAT                                    EAT,3078.6067,3064.495,2943.9653
197,0,False,left,avoid,pos,meat28_crop.jpg,3,20,1.0,196.0,1,3081.2146,3.0,20.0,DON'T EAT                                    EAT,3080.625,3064.495,2943.9653
198,0,False,left,avoid,pos,meat37_crop.jpg,3,20,1.0,197.0,1,3083.263,3.0,20.0,DON'T EAT                                    EAT,3082.6433,3064.495,2943.9653
199,0,False,left,avoid,pos,meat25_crop.jpg,3,20,1.0,198.0,1,3085.7698,3.0,20.0,DON'T EAT                                    EAT,3084.6616,3064.495,2943.9653
200,0,False,left,avoid,pos,meat8_crop.jpg,3,20,1.0,199.0,1,3087.3538,3.0,20.0,DON'T EAT                                    EAT,3086.68,3064.495,2943.9653
201,0,False,right,approach,neg,insect38_crop.jpg,3,21,1.0,200.0,--,--,3.0,21.0,DON'T EAT                                    EAT,3105.9958,3101.9927,2943.9653
202,0,True,right,avoid,neg,fungus18_crop.jpg,3,21,1.0,201.0,1,3108.675,3.0,21.0,DON'T EAT                                    EAT,3108.0144,3101.9927,2943.9653
203,0,False,right,approach,neg,insect33_crop.jpg,3,21,1.0,202.0,--,--,3.0,21.0,DON'T EAT                                    EAT,3110.0327,3101.9927,2943.9653
204,0,False,right,approach,neg,insect10_crop.jpg,3,21,1.0,203.0,--,--,3.0,21.0,DON'T EAT                                    EAT,3112.051,3101.9927,2943.9653
205,0,False,right,approach,neg,insect9_crop.jpg,3,21,1.0,204.0,--,--,3.0,21.0,DON'T EAT                                    EAT,3114.0693,3101.9927,2943.9653
206,0,False,right,approach,neg,insect36_crop.jpg,3,21,1.0,205.0,--,--,3.0,21.0,DON'T EAT                                    EAT,3116.0876,3101.9927,2943.9653
207,0,False,right,approach,neg,insect6_crop.jpg,3,21,1.0,206.0,--,--,3.0,21.0,DON'T EAT                                    EAT,3118.106,3101.9927,2943.9653
208,0,False,right,approach,neg,insect37_crop.jpg,3,21,1.0,207.0,--,--,3.0,21.0,DON'T EAT                                    EAT,3120.1245,3101.9927,2943.9653
209,0,True,right,avoid,pos,meat6_crop.jpg,3,21,1.0,208.0,1,3122.9426,3.0,21.0,DON'T EAT                                    EAT,3122.1426,3101.9927,2943.9653
210,0,False,right,approach,neg,insect16_crop.jpg,3,21,1.0,209.0,--,--,3.0,21.0,DON'T EAT                                    EAT,3124.1611,3101.9927,2943.9653
211,3,False,right,approach,neg,insect3_crop.jpg,3,22,1.0,210.0,--,--,3.0,22.0,DON'T EAT                                    EAT,3143.3604,3139.3403,2943.9653
212,3,False,right,approach,neg,insect18_crop.jpg,3,22,1.0,211.0,--,--,3.0,22.0,DON'T EAT                                    EAT,3145.3787,3139.3403,2943.9653
213,3,True,right,avoid,neg,fungus24_crop.jpg,3,22,1.0,212.0,1,3148.1782,3.0,22.0,DON'T EAT                                    EAT,3147.397,3139.3403,2943.9653
214,3,True,right,avoid,pos,meat5_crop.jpg,3,22,1.0,213.0,1,3150.2532,3.0,22.0,DON'T EAT                                    EAT,3149.4155,3139.3403,2943.9653
215,3,False,right,approach,neg,insect39_crop.jpg,3,22,1.0,214.0,--,--,3.0,22.0,DON'T EAT                                    EAT,3151.4338,3139.3403,2943.9653
216,3,False,right,approach,neg,insect35_crop.jpg,3,22,1.0,215.0,--,--,3.0,22.0,DON'T EAT                                    EAT,3153.4521,3139.3403,2943.9653
217,3,False,right,approach,neg,insect5_crop.jpg,3,22,1.0,216.0,--,--,3.0,22.0,DON'T EAT                                    EAT,3155.4705,3139.3403,2943.9653
218,3,False,right,approach,neg,insect8_crop.jpg,3,22,1.0,217.0,--,--,3.0,22.0,DON'T EAT                                    EAT,3157.4888,3139.3403,2943.9653
219,3,False,right,approach,neg,insect7_crop.jpg,3,22,1.0,218.0,--,--,3.0,22.0,DON'T EAT                                    EAT,3159.507,3139.3403,2943.9653
220,3,False,right,approach,neg,insect14_crop.jpg,3,22,1.0,219.0,--,--,3.0,22.0,DON'T EAT                                    EAT,3161.5256,3139.3403,2943.9653
221,3,True,left,avoid,neg,fungus7_crop.jpg,3,23,1.0,220.0,1,3180.863,3.0,23.0,DON'T EAT                                    EAT,3180.1243,3176.1042,2943.9653
222,3,False,left,approach,neg,insect30_crop.jpg,3,23,1.0,221.0,--,--,3.0,23.0,DON'T EAT                                    EAT,3182.1426,3176.1042,2943.9653
223,3,False,left,approach,neg,insect32_crop.jpg,3,23,1.0,222.0,--,--,3.0,23.0,DON'T EAT                                    EAT,3184.161,3176.1042,2943.9653
224,3,False,left,approach,neg,insect17_crop.jpg,3,23,1.0,223.0,--,--,3.0,23.0,DON'T EAT                                    EAT,3186.1792,3176.1042,2943.9653
225,3,False,left,approach,neg,insect28_crop.jpg,3,23,1.0,224.0,--,--,3.0,23.0,DON'T EAT                                    EAT,3188.1975,3176.1042,2943.9653
226,3,False,left,approach,neg,insect24_crop.jpg,3,23,1.0,225.0,--,--,3.0,23.0,DON'T EAT                                    EAT,3190.216,3176.1042,2943.9653
227,3,True,left,avoid,pos,meat34_crop.jpg,3,23,1.0,226.0,1,3193.0024,3.0,23.0,DON'T EAT                                    EAT,3192.2341,3176.1042,2943.9653
228,3,False,left,approach,neg,insect31_crop.jpg,3,23,1.0,227.0,--,--,3.0,23.0,DON'T EAT                                    EAT,3194.2524,3176.1042,2943.9653
229,3,False,left,approach,neg,insect35_crop.jpg,3,23,1.0,228.0,--,--,3.0,23.0,DON'T EAT                                    EAT,3196.271,3176.1042,2943.9653
230,3,False,left,approach,neg,insect21_crop.jpg,3,23,1.0,229.0,--,--,3.0,23.0,DON'T EAT                                    EAT,3198.2893,3176.1042,2943.9653
231,3,False,left,avoid,neg,fungus18_crop.jpg,3,24,1.0,230.0,1,3217.4556,3.0,24.0,DON'T EAT                                    EAT,3216.4211,3212.4011,2943.9653
232,3,False,left,avoid,neg,fungus15_crop.jpg,3,24,1.0,231.0,1,3219.2,3.0,24.0,DON'T EAT                                    EAT,3218.4395,3212.4011,2943.9653
233,3,False,left,avoid,neg,fungus39_crop.jpg,3,24,1.0,232.0,1,3221.1409,3.0,24.0,DON'T EAT                                    EAT,3220.4578,3212.4011,2943.9653
234,3,True,left,approach,pos,cake34_crop.jpg,3,24,1.0,233.0,--,--,3.0,24.0,DON'T EAT                                    EAT,3222.476,3212.4011,2943.9653
235,3,False,left,avoid,neg,fungus30_crop.jpg,3,24,1.0,234.0,1,3225.2031,3.0,24.0,DON'T EAT                                    EAT,3224.4944,3212.4011,2943.9653
236,3,False,left,avoid,neg,fungus23_crop.jpg,3,24,1.0,235.0,1,3227.0188,3.0,24.0,DON'T EAT                                    EAT,3226.5127,3212.4011,2943.9653
237,3,False,left,avoid,neg,fungus2_crop.jpg,3,24,1.0,236.0,1,3229.2317,3.0,24.0,DON'T EAT                                    EAT,3228.531,3212.4011,2943.9653
238,3,True,left,approach,neg,insect2_crop.jpg,3,24,1.0,237.0,--,--,3.0,24.0,DON'T EAT                                    EAT,3230.5496,3212.4011,2943.9653
239,3,False,left,avoid,neg,fungus1_crop.jpg,3,24,1.0,238.0,1,3233.2021,3.0,24.0,DON'T EAT                                    EAT,3232.5679,3212.4011,2943.9653
240,3,False,left,avoid,neg,fungus11_crop.jpg,3,24,1.0,239.0,1,3235.2222,3.0,24.0,DON'T EAT                                    EAT,3234.586,3212.4011,2943.9653
241,1,False,left,approach,neg,insect13_crop.jpg,4,25,1.0,240.0,--,--,3.0,25.0,DON'T EAT                                    EAT,3330.8162,3326.8127,3315.1536
242,1,False,left,approach,neg,insect22_crop.jpg,4,25,1.0,241.0,--,--,3.0,25.0,DON'T EAT                                    EAT,3332.835,3326.8127,3315.1536
243,1,False,left,approach,neg,insect15_crop.jpg,4,25,1.0,242.0,--,--,3.0,25.0,DON'T EAT                                    EAT,3334.8533,3326.8127,3315.1536
244,1,False,left,approach,neg,insect29_crop.jpg,4,25,1.0,243.0,--,--,3.0,25.0,DON'T EAT                                    EAT,3336.8716,3326.8127,3315.1536
245,1,True,left,avoid,pos,meat30_crop.jpg,4,25,1.0,244.0,1,3339.671,3.0,25.0,DON'T EAT                                    EAT,3338.89,3326.8127,3315.1536
246,1,False,left,approach,neg,insect18_crop.jpg,4,25,1.0,245.0,--,--,3.0,25.0,DON'T EAT                                    EAT,3340.9082,3326.8127,3315.1536
247,1,False,left,approach,neg,insect7_crop.jpg,4,25,1.0,246.0,--,--,3.0,25.0,DON'T EAT                                    EAT,3342.9265,3326.8127,3315.1536
248,1,False,left,approach,neg,insect34_crop.jpg,4,25,1.0,247.0,--,--,3.0,25.0,DON'T EAT                                    EAT,3344.945,3326.8127,3315.1536
249,1,False,left,approach,neg,insect9_crop.jpg,4,25,1.0,248.0,--,--,3.0,25.0,DON'T EAT                                    EAT,3346.9634,3326.8127,3315.1536
250,1,True,left,avoid,neg,fungus36_crop.jpg,4,25,1.0,249.0,1,3349.8047,3.0,25.0,DON'T EAT                                    EAT,3348.9814,3326.8127,3315.1536
251,0,False,right,approach,pos,cake7_crop.jpg,4,26,1.0,250.0,--,--,3.0,26.0,DON'T EAT                                    EAT,3366.8132,3362.793,3315.1536
252,0,True,right,avoid,pos,meat30_crop.jpg,4,26,1.0,251.0,1,3369.5266,3.0,26.0,DON'T EAT                                    EAT,3368.8313,3362.793,3315.1536
253,0,False,right,approach,pos,cake1_crop.jpg,4,26,1.0,252.0,--,--,3.0,26.0,DON'T EAT                                    EAT,3370.8496,3362.793,3315.1536
254,0,False,right,approach,pos,cake18_crop.jpg,4,26,1.0,253.0,--,--,3.0,26.0,DON'T EAT                                    EAT,3372.8682,3362.793,3315.1536
255,0,False,right,approach,pos,cake15_crop.jpg,4,26,1.0,254.0,--,--,3.0,26.0,DON'T EAT                                    EAT,3374.8865,3362.793,3315.1536
256,0,False,right,approach,pos,cake37_crop.jpg,4,26,1.0,255.0,--,--,3.0,26.0,DON'T EAT                                    EAT,3376.9048,3362.793,3315.1536
257,0,True,right,avoid,neg,fungus29_crop.jpg,4,26,1.0,256.0,1,3379.822,3.0,26.0,DON'T EAT                                    EAT,3378.923,3362.793,3315.1536
258,0,False,right,approach,pos,cake9_crop.jpg,4,26,1.0,257.0,--,--,3.0,26.0,DON'T EAT                                    EAT,3380.9417,3362.793,3315.1536
259,0,False,right,approach,pos,cake27_crop.jpg,4,26,1.0,258.0,--,--,3.0,26.0,DON'T EAT                                    EAT,3382.9597,3362.793,3315.1536
260,0,False,right,approach,pos,cake25_crop.jpg,4,26,1.0,259.0,--,--,3.0,26.0,DON'T EAT                                    EAT,3384.9783,3362.793,3315.1536
261,1,False,left,approach,pos,cake38_crop.jpg,4,27,1.0,260.0,--,--,3.0,27.0,DON'T EAT                                    EAT,3402.3257,3398.3057,3315.1536
262,1,True,left,avoid,neg,fungus35_crop.jpg,4,27,1.0,261.0,1,3405.1047,3.0,27.0,DON'T EAT                                    EAT,3404.3442,3398.3057,3315.1536
263,1,False,left,approach,pos,cake30_crop.jpg,4,27,1.0,262.0,--,--,3.0,27.0,DON'T EAT                                    EAT,3406.362,3398.3057,3315.1536
264,1,False,left,approach,pos,cake40_crop.jpg,4,27,1.0,263.0,--,--,3.0,27.0,DON'T EAT                                    EAT,3408.381,3398.3057,3315.1536
265,1,True,left,avoid,pos,meat19_crop.jpg,4,27,1.0,264.0,1,3411.1167,3.0,27.0,DON'T EAT                                    EAT,3410.399,3398.3057,3315.1536
266,1,False,left,approach,pos,cake31_crop.jpg,4,27,1.0,265.0,--,--,3.0,27.0,DON'T EAT                                    EAT,3412.4177,3398.3057,3315.1536
267,1,False,left,approach,pos,cake37_crop.jpg,4,27,1.0,266.0,--,--,3.0,27.0,DON'T EAT                                    EAT,3414.4358,3398.3057,3315.1536
268,1,False,left,approach,pos,cake14_crop.jpg,4,27,1.0,267.0,--,--,3.0,27.0,DON'T EAT                                    EAT,3416.4543,3398.3057,3315.1536
269,1,False,left,approach,pos,cake21_crop.jpg,4,27,1.0,268.0,--,--,3.0,27.0,DON'T EAT                                    EAT,3418.4727,3398.3057,3315.1536
270,1,False,left,approach,pos,cake1_crop.jpg,4,27,1.0,269.0,--,--,3.0,27.0,DON'T EAT                                    EAT,3420.491,3398.3057,3315.1536
271,2,False,right,avoid,neg,fungus4_crop.jpg,4,28,1.0,270.0,1,3438.5947,3.0,28.0,DON'T EAT                                    EAT,3437.7888,3433.7688,3315.1536
272,2,False,right,avoid,neg,fungus37_crop.jpg,4,28,1.0,271.0,1,3440.9326,3.0,28.0,DON'T EAT                                    EAT,3439.807,3433.7688,3315.1536
273,2,False,right,avoid,neg,fungus28_crop.jpg,4,28,1.0,272.0,1,3442.544,3.0,28.0,DON'T EAT                                    EAT,3441.8254,3433.7688,3315.1536
274,2,False,right,avoid,neg,fungus20_crop.jpg,4,28,1.0,273.0,1,3444.5295,3.0,28.0,DON'T EAT                                    EAT,3443.8438,3433.7688,3315.1536
275,2,False,right,avoid,neg,fungus39_crop.jpg,4,28,1.0,274.0,1,3446.7307,3.0,28.0,DON'T EAT                                    EAT,3445.862,3433.7688,3315.1536
276,2,False,right,avoid,neg,fungus5_crop.jpg,4,28,1.0,275.0,1,3448.5796,3.0,28.0,DON'T EAT                                    EAT,3447.88,3433.7688,3315.1536
277,2,True,right,approach,neg,insect20_crop.jpg,4,28,1.0,276.0,--,--,3.0,28.0,DON'T EAT                                    EAT,3449.8987,3433.7688,3315.1536
278,2,False,right,avoid,neg,fungus21_crop.jpg,4,28,1.0,277.0,1,3452.7585,3.0,28.0,DON'T EAT                                    EAT,3451.917,3433.7688,3315.1536
279,2,True,right,approach,pos,cake24_crop.jpg,4,28,1.0,278.0,--,--,3.0,28.0,DON'T EAT                                    EAT,3453.9355,3433.7688,3315.1536
280,2,False,right,avoid,neg,fungus19_crop.jpg,4,28,1.0,279.0,1,3456.6394,3.0,28.0,DON'T EAT                                    EAT,3455.9539,3433.7688,3315.1536
281,3,False,left,approach,pos,cake2_crop.jpg,4,29,1.0,280.0,--,--,3.0,29.0,DON'T EAT                                    EAT,3473.068,3469.0479,3315.1536
282,3,False,left,approach,pos,cake8_crop.jpg,4,29,1.0,281.0,--,--,3.0,29.0,DON'T EAT                                    EAT,3475.0864,3469.0479,3315.1536
283,3,True,left,avoid,neg,fungus13_crop.jpg,4,29,1.0,282.0,1,3478.2227,3.0,29.0,DON'T EAT                                    EAT,3477.1047,3469.0479,3315.1536
284,3,False,left,approach,pos,cake13_crop.jpg,4,29,1.0,283.0,--,--,3.0,29.0,DON'T EAT                                    EAT,3479.123,3469.0479,3315.1536
285,3,False,left,approach,pos,cake10_crop.jpg,4,29,1.0,284.0,--,--,3.0,29.0,DON'T EAT                                    EAT,3481.1414,3469.0479,3315.1536
286,3,False,left,approach,pos,cake18_crop.jpg,4,29,1.0,285.0,--,--,3.0,29.0,DON'T EAT                                    EAT,3483.1597,3469.0479,3315.1536
287,3,True,left,avoid,pos,meat38_crop.jpg,4,29,1.0,286.0,1,3485.959,3.0,29.0,DON'T EAT                                    EAT,3485.178,3469.0479,3315.1536
288,3,False,left,approach,pos,cake24_crop.jpg,4,29,1.0,287.0,1,3487.7227,3.0,29.0,DON'T EAT                                    EAT,3487.1965,3469.0479,3315.1536
289,3,False,left,approach,pos,cake39_crop.jpg,4,29,1.0,288.0,--,--,3.0,29.0,DON'T EAT                                    EAT,3489.2148,3469.0479,3315.1536
290,3,False,left,approach,pos,cake17_crop.jpg,4,29,1.0,289.0,--,--,3.0,29.0,DON'T EAT                                    EAT,3491.2332,3469.0479,3315.1536
291,2,True,left,approach,neg,insect27_crop.jpg,4,30,1.0,290.0,--,--,3.0,30.0,DON'T EAT                                    EAT,3507.6301,3503.6099,3315.1536
292,2,False,left,avoid,pos,meat4_crop.jpg,4,30,1.0,291.0,1,3510.5068,3.0,30.0,DON'T EAT                                    EAT,3509.6484,3503.6099,3315.1536
293,2,False,left,avoid,pos,meat1_crop.jpg,4,30,1.0,292.0,1,3512.4768,3.0,30.0,DON'T EAT                                    EAT,3511.6665,3503.6099,3315.1536
294,2,False,left,avoid,pos,meat7_crop.jpg,4,30,1.0,293.0,1,3514.4646,3.0,30.0,DON'T EAT                                    EAT,3513.685,3503.6099,3315.1536
295,2,False,left,avoid,pos,meat16_crop.jpg,4,30,1.0,294.0,1,3516.452,3.0,30.0,DON'T EAT                                    EAT,3515.7034,3503.6099,3315.1536
296,2,True,left,approach,pos,cake35_crop.jpg,4,30,1.0,295.0,--,--,3.0,30.0,DON'T EAT                                    EAT,3517.7217,3503.6099,3315.1536
297,2,False,left,avoid,pos,meat35_crop.jpg,4,30,1.0,296.0,1,3520.526,3.0,30.0,DON'T EAT                                    EAT,3519.7402,3503.6099,3315.1536
298,2,False,left,avoid,pos,meat12_crop.jpg,4,30,1.0,297.0,1,3522.4114,3.0,30.0,DON'T EAT                                    EAT,3521.7585,3503.6099,3315.1536
299,2,False,left,avoid,pos,meat33_crop.jpg,4,30,1.0,298.0,1,3524.5264,3.0,30.0,DON'T EAT                                    EAT,3523.7769,3503.6099,3315.1536
300,2,False,left,avoid,pos,meat22_crop.jpg,4,30,1.0,299.0,1,3526.376,3.0,30.0,DON'T EAT                                    EAT,3525.7952,3503.6099,3315.1536
301,1,False,right,approach,pos,cake3_crop.jpg,4,31,1.0,300.0,--,--,3.0,31.0,DON'T EAT                                    EAT,3544.761,3540.741,3315.1536
302,1,False,right,approach,pos,cake23_crop.jpg,4,31,1.0,301.0,--,--,3.0,31.0,DON'T EAT                                    EAT,3546.7793,3540.741,3315.1536
303,1,True,right,avoid,pos,meat33_crop.jpg,4,31,1.0,302.0,1,3549.6409,3.0,31.0,DON'T EAT                                    EAT,3548.7976,3540.741,3315.1536
304,1,False,right,approach,pos,cake31_crop.jpg,4,31,1.0,303.0,--,--,3.0,31.0,DON'T EAT                                    EAT,3550.8157,3540.741,3315.1536
305,1,False,right,approach,pos,cake5_crop.jpg,4,31,1.0,304.0,--,--,3.0,31.0,DON'T EAT                                    EAT,3552.8342,3540.741,3315.1536
306,1,True,right,avoid,neg,fungus25_crop.jpg,4,31,1.0,305.0,1,3555.5813,3.0,31.0,DON'T EAT                                    EAT,3554.8525,3540.741,3315.1536
307,1,False,right,approach,pos,cake19_crop.jpg,4,31,1.0,306.0,--,--,3.0,31.0,DON'T EAT                                    EAT,3556.871,3540.741,3315.1536
308,1,False,right,approach,pos,cake36_crop.jpg,4,31,1.0,307.0,--,--,3.0,31.0,DON'T EAT                                    EAT,3558.8887,3540.741,3315.1536
309,1,False,right,approach,pos,cake22_crop.jpg,4,31,1.0,308.0,--,--,3.0,31.0,DON'T EAT                                    EAT,3560.9077,3540.741,3315.1536
310,1,False,right,approach,pos,cake6_crop.jpg,4,31,1.0,309.0,--,--,3.0,31.0,DON'T EAT                                    EAT,3562.9258,3540.741,3315.1536
311,0,False,right,avoid,neg,fungus26_crop.jpg,4,32,1.0,310.0,1,3582.333,3.0,32.0,DON'T EAT                                    EAT,3581.6248,3577.6045,3315.1536
312,0,False,right,avoid,neg,fungus13_crop.jpg,4,32,1.0,311.0,1,3584.16,3.0,32.0,DON'T EAT                                    EAT,3583.6433,3577.6045,3315.1536
313,0,False,right,avoid,neg,fungus36_crop.jpg,4,32,1.0,312.0,1,3586.4412,3.0,32.0,DON'T EAT                                    EAT,3585.6616,3577.6045,3315.1536
314,0,True,right,approach,neg,insect23_crop.jpg,4,32,1.0,313.0,--,--,3.0,32.0,DON'T EAT                                    EAT,3587.68,3577.6045,3315.1536
315,0,False,right,avoid,neg,fungus15_crop.jpg,4,32,1.0,314.0,1,3590.436,3.0,32.0,DON'T EAT                                    EAT,3589.698,3577.6045,3315.1536
316,0,False,right,avoid,neg,fungus12_crop.jpg,4,32,1.0,315.0,1,3592.4346,3.0,32.0,DON'T EAT                                    EAT,3591.7166,3577.6045,3315.1536
317,0,True,right,approach,pos,cake17_crop.jpg,4,32,1.0,316.0,--,--,3.0,32.0,DON'T EAT                                    EAT,3593.7349,3577.6045,3315.1536
318,0,False,right,avoid,neg,fungus9_crop.jpg,4,32,1.0,317.0,1,3596.4392,3.0,32.0,DON'T EAT                                    EAT,3595.7534,3577.6045,3315.1536
319,0,False,right,avoid,neg,fungus7_crop.jpg,4,32,1.0,318.0,1,3598.5957,3.0,32.0,DON'T EAT                                    EAT,3597.7717,3577.6045,3315.1536
320,0,False,right,avoid,neg,fungus33_crop.jpg,4,32,1.0,319.0,1,3600.4485,3.0,32.0,DON'T EAT                                    EAT,3599.79,3577.6045,3315.1536
