subject,trial_number,n_block,catch,hand,mot,val,stim_name,run_number,num_block,ran,order,subject_number,left_side_resp_label,trial_onset,blk_instr_onset,baseline_onset,response,time_of_response,response_hand,response_cleaned,response_lat,response_lat_cleaned,response_meaning,response_meaning_cleaned,condition_mot,condition_val,condition,correct,correct_cleaned,rt
sub-057,1,3,FALSE,right,avoid,neg,fungus25_crop.jpg,1,1,TRUE,0,57,DON'T EAT                                    EAT,1749.7521,1745.7317,1733.7006,--,NA,left,--,NA,NA,no_response,no_response,avoid,neg,avoid-neg,NA,NA,NA
sub-057,2,3,FALSE,right,avoid,neg,fungus28_crop.jpg,1,1,TRUE,1,57,DON'T EAT                                    EAT,1751.7701,1745.7317,1733.7006,1,1752.8817,left,1,left,left,not_eat,not_eat,avoid,neg,avoid-neg,1,1,1111.6000000000931
sub-057,3,3,FALSE,right,avoid,neg,fungus11_crop.jpg,1,1,TRUE,2,57,DON'T EAT                                    EAT,1753.7887,1745.7317,1733.7006,1,1754.8888,left,1,left,left,not_eat,not_eat,avoid,neg,avoid-neg,1,1,1100.1000000000931
sub-057,4,3,FALSE,right,avoid,neg,fungus9_crop.jpg,1,1,TRUE,3,57,DON'T EAT                                    EAT,1755.81,1745.7317,1733.7006,1,1756.5651,left,1,left,left,not_eat,not_eat,avoid,neg,avoid-neg,1,1,755.1000000000931
sub-057,5,3,FALSE,right,avoid,neg,fungus16_crop.jpg,1,1,TRUE,4,57,DON'T EAT                                    EAT,1757.8273,1745.7317,1733.7006,1,1759.0107,left,1,left,left,not_eat,not_eat,avoid,neg,avoid-neg,1,1,1183.4000000001397
sub-057,6,3,FALSE,right,avoid,neg,fungus15_crop.jpg,1,1,TRUE,5,57,DON'T EAT                                    EAT,1759.8434,1745.7317,1733.7006,1,1760.6174,left,1,left,left,not_eat,not_eat,avoid,neg,avoid-neg,1,1,774.0000000002328
sub-057,7,3,FALSE,right,avoid,neg,fungus8_crop.jpg,1,1,TRUE,6,57,DON'T EAT                                    EAT,1761.862,1745.7317,1733.7006,1,1762.7021,left,1,left,left,not_eat,not_eat,avoid,neg,avoid-neg,1,1,840.0999999998603
sub-057,8,3,TRUE,right,approach,neg,insect31_crop.jpg,1,1,TRUE,7,57,DON'T EAT                                    EAT,1763.8804,1745.7317,1733.7006,2,1764.6135,left,2,right,right,eat,eat,avoid,neg,avoid-neg,1,1,733.1000000000931
sub-057,9,3,FALSE,right,avoid,neg,fungus33_crop.jpg,1,1,TRUE,8,57,DON'T EAT                                    EAT,1765.8988,1745.7317,1733.7006,1,1766.6409,left,1,left,left,not_eat,not_eat,avoid,neg,avoid-neg,1,1,742.1000000000931
sub-057,10,3,TRUE,right,approach,pos,cake4_crop.jpg,1,1,TRUE,9,57,DON'T EAT                                    EAT,1767.9171,1745.7317,1733.7006,2,1768.6528,left,2,right,right,eat,eat,avoid,neg,avoid-neg,1,1,735.7000000001863
sub-057,11,1,FALSE,left,avoid,neg,fungus4_crop.jpg,1,2,TRUE,10,57,DON'T EAT                                    EAT,1785.9487,1781.9286,1733.7006,1,1786.8402,left,1,left,left,not_eat,not_eat,avoid,neg,avoid-neg,1,1,891.5000000002328
sub-057,12,1,TRUE,left,approach,pos,cake15_crop.jpg,1,2,TRUE,11,57,DON'T EAT                                    EAT,1787.967,1781.9286,1733.7006,2,1788.721,left,2,right,right,eat,eat,avoid,neg,avoid-neg,1,1,754
sub-057,13,1,FALSE,left,avoid,neg,fungus22_crop.jpg,1,2,TRUE,12,57,DON'T EAT                                    EAT,1789.9855,1781.9286,1733.7006,1,1790.6974,left,1,left,left,not_eat,not_eat,avoid,neg,avoid-neg,1,1,711.8999999999069
sub-057,14,1,FALSE,left,avoid,neg,fungus2_crop.jpg,1,2,TRUE,13,57,DON'T EAT                                    EAT,1792.0034,1781.9286,1733.7006,1,1792.7896,left,1,left,left,not_eat,not_eat,avoid,neg,avoid-neg,1,1,786.1999999999534
sub-057,15,1,FALSE,left,avoid,neg,fungus29_crop.jpg,1,2,TRUE,14,57,DON'T EAT                                    EAT,1794.0221,1781.9286,1733.7006,1,1794.8082,left,1,left,left,not_eat,not_eat,avoid,neg,avoid-neg,1,1,786.1000000000931
sub-057,16,1,FALSE,left,avoid,neg,fungus6_crop.jpg,1,2,TRUE,15,57,DON'T EAT                                    EAT,1796.0405,1781.9286,1733.7006,1,1796.681,left,1,left,left,not_eat,not_eat,avoid,neg,avoid-neg,1,1,640.5
sub-057,17,1,TRUE,left,approach,neg,insect31_crop.jpg,1,2,TRUE,16,57,DON'T EAT                                    EAT,1798.0587,1781.9286,1733.7006,2,1798.7599,left,2,right,right,eat,eat,avoid,neg,avoid-neg,1,1,701.1999999999534
sub-057,18,1,FALSE,left,avoid,neg,fungus24_crop.jpg,1,2,TRUE,17,57,DON'T EAT                                    EAT,1800.0771,1781.9286,1733.7006,1,1800.7059,left,1,left,left,not_eat,not_eat,avoid,neg,avoid-neg,1,1,628.8000000000466
sub-057,19,1,FALSE,left,avoid,neg,fungus35_crop.jpg,1,2,TRUE,18,57,DON'T EAT                                    EAT,1802.0955,1781.9286,1733.7006,1,1802.7875,left,1,left,left,not_eat,not_eat,avoid,neg,avoid-neg,1,1,692
sub-057,20,1,FALSE,left,avoid,neg,fungus33_crop.jpg,1,2,TRUE,19,57,DON'T EAT                                    EAT,1804.1133,1781.9286,1733.7006,1,1804.8574,left,1,left,left,not_eat,not_eat,avoid,neg,avoid-neg,1,1,744.1000000000931
sub-057,21,2,TRUE,left,avoid,neg,fungus18_crop.jpg,1,3,TRUE,20,57,DON'T EAT                                    EAT,1823.4298,1819.4098,1733.7006,1,1824.238,left,1,left,left,not_eat,not_eat,approach,neg,approach-neg,1,1,808.2000000001863
sub-057,22,2,FALSE,left,approach,neg,insect39_crop.jpg,1,3,TRUE,21,57,DON'T EAT                                    EAT,1825.4476,1819.4098,1733.7006,2,1826.2332,left,2,right,right,eat,eat,approach,neg,approach-neg,1,1,785.6000000000931
sub-057,23,2,FALSE,left,approach,neg,insect3_crop.jpg,1,3,TRUE,22,57,DON'T EAT                                    EAT,1827.4661,1819.4098,1733.7006,2,1828.1748,left,2,right,right,eat,eat,approach,neg,approach-neg,1,1,708.6999999999534
sub-057,24,2,FALSE,left,approach,neg,insect25_crop.jpg,1,3,TRUE,23,57,DON'T EAT                                    EAT,1829.485,1819.4098,1733.7006,2,1830.1981,left,2,right,right,eat,eat,approach,neg,approach-neg,1,1,713.1000000000931
sub-057,25,2,FALSE,left,approach,neg,insect14_crop.jpg,1,3,TRUE,24,57,DON'T EAT                                    EAT,1831.5027,1819.4098,1733.7006,2,1832.067,left,2,right,right,eat,eat,approach,neg,approach-neg,1,1,564.3000000000466
sub-057,26,2,TRUE,left,avoid,pos,meat39_crop.jpg,1,3,TRUE,25,57,DON'T EAT                                    EAT,1833.5216,1819.4098,1733.7006,1,1834.7878,left,1,left,left,not_eat,not_eat,approach,neg,approach-neg,1,1,1266.1999999999534
sub-057,27,2,FALSE,left,approach,neg,insect27_crop.jpg,1,3,TRUE,26,57,DON'T EAT                                    EAT,1835.5399,1819.4098,1733.7006,2,1836.6099,left,2,right,right,eat,eat,approach,neg,approach-neg,1,1,1070
sub-057,28,2,FALSE,left,approach,neg,insect19_crop.jpg,1,3,TRUE,27,57,DON'T EAT                                    EAT,1837.5576,1819.4098,1733.7006,2,1838.4143,left,2,right,right,eat,eat,approach,neg,approach-neg,1,1,856.6999999997206
sub-057,29,2,FALSE,left,approach,neg,insect17_crop.jpg,1,3,TRUE,28,57,DON'T EAT                                    EAT,1839.5765,1819.4098,1733.7006,2,1840.1946,left,2,right,right,eat,eat,approach,neg,approach-neg,1,1,618.1000000000931
sub-057,30,2,FALSE,left,approach,neg,insect23_crop.jpg,1,3,TRUE,29,57,DON'T EAT                                    EAT,1841.5948,1819.4098,1733.7006,2,1842.579,left,2,right,right,eat,eat,approach,neg,approach-neg,1,1,984.1999999999534
sub-057,31,2,FALSE,right,approach,pos,cake32_crop.jpg,1,4,TRUE,30,57,DON'T EAT                                    EAT,1858.3755,1854.355,1733.7006,2,1859.3923,left,2,right,right,eat,eat,approach,pos,approach-pos,1,1,1016.8000000000466
sub-057,32,2,TRUE,right,avoid,pos,meat17_crop.jpg,1,4,TRUE,31,57,DON'T EAT                                    EAT,1860.3934,1854.355,1733.7006,1,1861.7566,left,1,left,left,not_eat,not_eat,approach,pos,approach-pos,1,1,1363.1999999999534
sub-057,33,2,FALSE,right,approach,pos,cake14_crop.jpg,1,4,TRUE,32,57,DON'T EAT                                    EAT,1862.4116,1854.355,1733.7006,2,1863.2053,left,2,right,right,eat,eat,approach,pos,approach-pos,1,1,793.7000000001863
sub-057,34,2,FALSE,right,approach,pos,cake30_crop.jpg,1,4,TRUE,33,57,DON'T EAT                                    EAT,1864.4305,1854.355,1733.7006,2,1865.2058,left,2,right,right,eat,eat,approach,pos,approach-pos,1,1,775.3000000000466
sub-057,35,2,TRUE,right,avoid,neg,fungus36_crop.jpg,1,4,TRUE,34,57,DON'T EAT                                    EAT,1866.4489,1854.355,1733.7006,1,1867.2345,left,1,left,left,not_eat,not_eat,approach,pos,approach-pos,1,1,785.5999999998603
sub-057,36,2,FALSE,right,approach,pos,cake7_crop.jpg,1,4,TRUE,35,57,DON'T EAT                                    EAT,1868.4673,1854.355,1733.7006,2,1869.1583,left,2,right,right,eat,eat,approach,pos,approach-pos,1,1,691
sub-057,37,2,FALSE,right,approach,pos,cake15_crop.jpg,1,4,TRUE,36,57,DON'T EAT                                    EAT,1870.4851,1854.355,1733.7006,1,1871.4926,left,1,left,left,not_eat,not_eat,approach,pos,approach-pos,0,0,1007.5
sub-057,38,2,FALSE,right,approach,pos,cake38_crop.jpg,1,4,TRUE,37,57,DON'T EAT                                    EAT,1872.504,1854.355,1733.7006,2,1873.2168,left,2,right,right,eat,eat,approach,pos,approach-pos,1,1,712.7999999998137
sub-057,39,2,FALSE,right,approach,pos,cake27_crop.jpg,1,4,TRUE,38,57,DON'T EAT                                    EAT,1874.5219,1854.355,1733.7006,2,1875.1869,left,2,right,right,eat,eat,approach,pos,approach-pos,1,1,665
sub-057,40,2,FALSE,right,approach,pos,cake24_crop.jpg,1,4,TRUE,39,57,DON'T EAT                                    EAT,1876.5405,1854.355,1733.7006,2,1877.117,left,2,right,right,eat,eat,approach,pos,approach-pos,1,1,576.5
sub-057,41,2,FALSE,right,avoid,neg,fungus39_crop.jpg,1,5,TRUE,40,57,DON'T EAT                                    EAT,1895.9398,1891.9362,1733.7006,1,1897.1372,left,1,left,left,not_eat,not_eat,avoid,neg,avoid-neg,1,1,1197.3999999999069
sub-057,42,2,FALSE,right,avoid,neg,fungus38_crop.jpg,1,5,TRUE,41,57,DON'T EAT                                    EAT,1897.9584,1891.9362,1733.7006,1,1898.7754,left,1,left,left,not_eat,not_eat,avoid,neg,avoid-neg,1,1,817
sub-057,43,2,FALSE,right,avoid,neg,fungus31_crop.jpg,1,5,TRUE,42,57,DON'T EAT                                    EAT,1899.9768,1891.9362,1733.7006,1,1900.9098,left,1,left,left,not_eat,not_eat,avoid,neg,avoid-neg,1,1,933
sub-057,44,2,TRUE,right,approach,neg,insect26_crop.jpg,1,5,TRUE,43,57,DON'T EAT                                    EAT,1901.995,1891.9362,1733.7006,2,1902.7921,left,2,right,right,eat,eat,avoid,neg,avoid-neg,1,1,797.0999999998603
sub-057,45,2,FALSE,right,avoid,neg,fungus20_crop.jpg,1,5,TRUE,44,57,DON'T EAT                                    EAT,1904.0134,1891.9362,1733.7006,1,1904.7788,left,1,left,left,not_eat,not_eat,avoid,neg,avoid-neg,1,1,765.3999999999069
sub-057,46,2,FALSE,right,avoid,neg,fungus5_crop.jpg,1,5,TRUE,45,57,DON'T EAT                                    EAT,1906.0317,1891.9362,1733.7006,1,1906.9858,left,1,left,left,not_eat,not_eat,avoid,neg,avoid-neg,1,1,954.0999999998603
sub-057,47,2,FALSE,right,avoid,neg,fungus37_crop.jpg,1,5,TRUE,46,57,DON'T EAT                                    EAT,1908.0502,1891.9362,1733.7006,1,1909.1067,left,1,left,left,not_eat,not_eat,avoid,neg,avoid-neg,1,1,1056.5
sub-057,48,2,FALSE,right,avoid,neg,fungus30_crop.jpg,1,5,TRUE,47,57,DON'T EAT                                    EAT,1910.0682,1891.9362,1733.7006,1,1910.8439,left,1,left,left,not_eat,not_eat,avoid,neg,avoid-neg,1,1,775.7000000001863
sub-057,49,2,TRUE,right,approach,pos,cake6_crop.jpg,1,5,TRUE,48,57,DON'T EAT                                    EAT,1912.0868,1891.9362,1733.7006,2,1912.8198,left,2,right,right,eat,eat,avoid,neg,avoid-neg,1,1,733
sub-057,50,2,FALSE,right,avoid,neg,fungus1_crop.jpg,1,5,TRUE,49,57,DON'T EAT                                    EAT,1914.1051,1891.9362,1733.7006,1,1914.8695,left,1,left,left,not_eat,not_eat,avoid,neg,avoid-neg,1,1,764.3999999999069
sub-057,51,2,TRUE,right,avoid,pos,meat23_crop.jpg,1,6,TRUE,50,57,DON'T EAT                                    EAT,1930.2686,1926.2483,1733.7006,1,1931.486,left,1,left,left,not_eat,not_eat,approach,neg,approach-neg,1,1,1217.3999999999069
sub-057,52,2,FALSE,right,approach,neg,insect18_crop.jpg,1,6,TRUE,51,57,DON'T EAT                                    EAT,1932.2863,1926.2483,1733.7006,2,1933.0819,left,2,right,right,eat,eat,approach,neg,approach-neg,1,1,795.5999999998603
sub-057,53,2,FALSE,right,approach,neg,insect32_crop.jpg,1,6,TRUE,52,57,DON'T EAT                                    EAT,1934.3052,1926.2483,1733.7006,2,1934.9226,left,2,right,right,eat,eat,approach,neg,approach-neg,1,1,617.4000000001397
sub-057,54,2,FALSE,right,approach,neg,insect8_crop.jpg,1,6,TRUE,53,57,DON'T EAT                                    EAT,1936.3232,1926.2483,1733.7006,2,1936.9323,left,2,right,right,eat,eat,approach,neg,approach-neg,1,1,609.1000000000931
sub-057,55,2,FALSE,right,approach,neg,insect14_crop.jpg,1,6,TRUE,54,57,DON'T EAT                                    EAT,1938.3419,1926.2483,1733.7006,2,1938.8873,left,2,right,right,eat,eat,approach,neg,approach-neg,1,1,545.4000000001397
sub-057,56,2,FALSE,right,approach,neg,insect17_crop.jpg,1,6,TRUE,55,57,DON'T EAT                                    EAT,1940.3601,1926.2483,1733.7006,2,1940.895,left,2,right,right,eat,eat,approach,neg,approach-neg,1,1,534.8999999999069
sub-057,57,2,FALSE,right,approach,neg,insect25_crop.jpg,1,6,TRUE,56,57,DON'T EAT                                    EAT,1942.3787,1926.2483,1733.7006,2,1942.8396,left,2,right,right,eat,eat,approach,neg,approach-neg,1,1,460.9000000001397
sub-057,58,2,TRUE,right,avoid,neg,fungus3_crop.jpg,1,6,TRUE,57,57,DON'T EAT                                    EAT,1944.3967,1926.2483,1733.7006,1,1945.1627,left,1,left,left,not_eat,not_eat,approach,neg,approach-neg,1,1,766.0000000002328
sub-057,59,2,FALSE,right,approach,neg,insect10_crop.jpg,1,6,TRUE,58,57,DON'T EAT                                    EAT,1946.4153,1926.2483,1733.7006,2,1947.2139,left,2,right,right,eat,eat,approach,neg,approach-neg,1,1,798.6000000000931
sub-057,60,2,FALSE,right,approach,neg,insect28_crop.jpg,1,6,TRUE,59,57,DON'T EAT                                    EAT,1948.4333,1926.2483,1733.7006,2,1949.1879,left,2,right,right,eat,eat,approach,neg,approach-neg,1,1,754.6000000000931
sub-057,61,1,FALSE,right,approach,neg,insect21_crop.jpg,1,7,TRUE,60,57,DON'T EAT                                    EAT,1966.1984,1962.1781,1733.7006,2,1967.2245,left,2,right,right,eat,eat,approach,neg,approach-neg,1,1,1026.1000000000931
sub-057,62,1,FALSE,right,approach,neg,insect9_crop.jpg,1,7,TRUE,61,57,DON'T EAT                                    EAT,1968.2169,1962.1781,1733.7006,2,1969.0254,left,2,right,right,eat,eat,approach,neg,approach-neg,1,1,808.5
sub-057,63,1,TRUE,right,avoid,neg,fungus40_crop.jpg,1,7,TRUE,62,57,DON'T EAT                                    EAT,1970.2351,1962.1781,1733.7006,1,1971.2394,left,1,left,left,not_eat,not_eat,approach,neg,approach-neg,1,1,1004.2999999998137
sub-057,64,1,FALSE,right,approach,neg,insect4_crop.jpg,1,7,TRUE,63,57,DON'T EAT                                    EAT,1972.2533,1962.1781,1733.7006,2,1972.9349,left,2,right,right,eat,eat,approach,neg,approach-neg,1,1,681.5999999998603
sub-057,65,1,FALSE,right,approach,neg,insect30_crop.jpg,1,7,TRUE,64,57,DON'T EAT                                    EAT,1974.2717,1962.1781,1733.7006,2,1975.036,left,2,right,right,eat,eat,approach,neg,approach-neg,1,1,764.3000000000466
sub-057,66,1,FALSE,right,approach,neg,insect16_crop.jpg,1,7,TRUE,65,57,DON'T EAT                                    EAT,1976.29,1962.1781,1733.7006,2,1976.9796,left,2,right,right,eat,eat,approach,neg,approach-neg,1,1,689.5999999998603
sub-057,67,1,FALSE,right,approach,neg,insect3_crop.jpg,1,7,TRUE,66,57,DON'T EAT                                    EAT,1978.3085,1962.1781,1733.7006,2,1978.9589,left,2,right,right,eat,eat,approach,neg,approach-neg,1,1,650.4000000001397
sub-057,68,1,FALSE,right,approach,neg,insect2_crop.jpg,1,7,TRUE,67,57,DON'T EAT                                    EAT,1980.3265,1962.1781,1733.7006,2,1980.9136,left,2,right,right,eat,eat,approach,neg,approach-neg,1,1,587.1000000000931
sub-057,69,1,TRUE,right,avoid,pos,meat28_crop.jpg,1,7,TRUE,68,57,DON'T EAT                                    EAT,1982.3451,1962.1781,1733.7006,1,1983.2147,left,1,left,left,not_eat,not_eat,approach,neg,approach-neg,1,1,869.5999999998603
sub-057,70,1,FALSE,right,approach,neg,insect36_crop.jpg,1,7,TRUE,69,57,DON'T EAT                                    EAT,1984.3633,1962.1781,1733.7006,2,1985.4434,left,2,right,right,eat,eat,approach,neg,approach-neg,1,1,1080.1000000000931
sub-057,71,1,FALSE,left,avoid,pos,meat19_crop.jpg,1,8,TRUE,70,57,DON'T EAT                                    EAT,2002.4451,1998.4253,1733.7006,1,2003.3472,left,1,left,left,not_eat,not_eat,avoid,pos,avoid-pos,1,1,902.1000000000931
sub-057,72,1,FALSE,left,avoid,pos,meat14_crop.jpg,1,8,TRUE,71,57,DON'T EAT                                    EAT,2004.4635,1998.4253,1733.7006,1,2005.2599,left,1,left,left,not_eat,not_eat,avoid,pos,avoid-pos,1,1,796.3999999999069
sub-057,73,1,FALSE,left,avoid,pos,meat16_crop.jpg,1,8,TRUE,72,57,DON'T EAT                                    EAT,2006.4819,1998.4253,1733.7006,1,2007.1538,left,1,left,left,not_eat,not_eat,avoid,pos,avoid-pos,1,1,671.9000000001397
sub-057,74,1,FALSE,left,avoid,pos,meat36_crop.jpg,1,8,TRUE,73,57,DON'T EAT                                    EAT,2008.5002,1998.4253,1733.7006,1,2009.0885,left,1,left,left,not_eat,not_eat,avoid,pos,avoid-pos,1,1,588.3000000000466
sub-057,75,1,FALSE,left,avoid,pos,meat38_crop.jpg,1,8,TRUE,74,57,DON'T EAT                                    EAT,2010.5186,1998.4253,1733.7006,1,2011.0938,left,1,left,left,not_eat,not_eat,avoid,pos,avoid-pos,1,1,575.1999999999534
sub-057,76,1,FALSE,left,avoid,pos,meat22_crop.jpg,1,8,TRUE,75,57,DON'T EAT                                    EAT,2012.5366,1998.4253,1733.7006,1,2013.214,left,1,left,left,not_eat,not_eat,avoid,pos,avoid-pos,1,1,677.4000000001397
sub-057,77,1,TRUE,left,approach,neg,insect33_crop.jpg,1,8,TRUE,76,57,DON'T EAT                                    EAT,2014.5552,1998.4253,1733.7006,2,2015.279,left,2,right,right,eat,eat,avoid,pos,avoid-pos,1,1,723.8000000000466
sub-057,78,1,FALSE,left,avoid,pos,meat27_crop.jpg,1,8,TRUE,77,57,DON'T EAT                                    EAT,2016.5732,1998.4253,1733.7006,1,2017.328,left,1,left,left,not_eat,not_eat,avoid,pos,avoid-pos,1,1,754.8000000000466
sub-057,79,1,TRUE,left,approach,pos,cake8_crop.jpg,1,8,TRUE,78,57,DON'T EAT                                    EAT,2018.5919,1998.4253,1733.7006,2,2019.3353,left,2,right,right,eat,eat,avoid,pos,avoid-pos,1,1,743.4000000001397
sub-057,80,1,FALSE,left,avoid,pos,meat37_crop.jpg,1,8,TRUE,79,57,DON'T EAT                                    EAT,2020.6102,1998.4253,1733.7006,1,2021.3428,left,1,left,left,not_eat,not_eat,avoid,pos,avoid-pos,1,1,732.5999999996275
sub-057,81,0,TRUE,right,approach,pos,cake9_crop.jpg,2,9,TRUE,80,57,DON'T EAT                                    EAT,2364.112,2360.0918,2349.0005,2,2365.044,right,2,right,right,eat,eat,avoid,neg,avoid-neg,1,1,932
sub-057,82,0,FALSE,right,avoid,neg,fungus2_crop.jpg,2,9,TRUE,81,57,DON'T EAT                                    EAT,2366.1304,2360.0918,2349.0005,1,2366.8965,right,1,left,left,not_eat,not_eat,avoid,neg,avoid-neg,1,1,766.1000000000931
sub-057,83,0,FALSE,right,avoid,neg,fungus7_crop.jpg,2,9,TRUE,82,57,DON'T EAT                                    EAT,2368.1482,2360.0918,2349.0005,1,2369.0178,right,1,left,left,not_eat,not_eat,avoid,neg,avoid-neg,1,1,869.6000000000931
sub-057,84,0,FALSE,right,avoid,neg,fungus24_crop.jpg,2,9,TRUE,83,57,DON'T EAT                                    EAT,2370.1672,2360.0918,2349.0005,1,2370.827,right,1,left,left,not_eat,not_eat,avoid,neg,avoid-neg,1,1,659.8000000002794
sub-057,85,0,FALSE,right,avoid,neg,fungus17_crop.jpg,2,9,TRUE,84,57,DON'T EAT                                    EAT,2372.1855,2360.0918,2349.0005,1,2372.8584,right,1,left,left,not_eat,not_eat,avoid,neg,avoid-neg,1,1,672.8999999999069
sub-057,86,0,FALSE,right,avoid,neg,fungus35_crop.jpg,2,9,TRUE,85,57,DON'T EAT                                    EAT,2374.204,2360.0918,2349.0005,1,2374.99,right,1,left,left,not_eat,not_eat,avoid,neg,avoid-neg,1,1,786
sub-057,87,0,FALSE,right,avoid,neg,fungus13_crop.jpg,2,9,TRUE,86,57,DON'T EAT                                    EAT,2376.2224,2360.0918,2349.0005,1,2376.9495,right,1,left,left,not_eat,not_eat,avoid,neg,avoid-neg,1,1,727.1000000000931
sub-057,88,0,FALSE,right,avoid,neg,fungus21_crop.jpg,2,9,TRUE,87,57,DON'T EAT                                    EAT,2378.24,2360.0918,2349.0005,1,2378.8892,right,1,left,left,not_eat,not_eat,avoid,neg,avoid-neg,1,1,649.2000000001863
sub-057,89,0,TRUE,right,approach,neg,insect39_crop.jpg,2,9,TRUE,88,57,DON'T EAT                                    EAT,2380.259,2360.0918,2349.0005,2,2381.0017,right,2,right,right,eat,eat,avoid,neg,avoid-neg,1,1,742.6999999997206
sub-057,90,0,FALSE,right,avoid,neg,fungus22_crop.jpg,2,9,TRUE,89,57,DON'T EAT                                    EAT,2382.2773,2360.0918,2349.0005,1,2382.9268,right,1,left,left,not_eat,not_eat,avoid,neg,avoid-neg,1,1,649.5
sub-057,91,1,FALSE,right,avoid,pos,meat7_crop.jpg,2,10,TRUE,90,57,DON'T EAT                                    EAT,2401.0596,2397.0396,2349.0005,1,2402.1375,right,1,left,left,not_eat,not_eat,avoid,pos,avoid-pos,1,1,1077.8999999999069
sub-057,92,1,TRUE,right,approach,neg,insect38_crop.jpg,2,10,TRUE,91,57,DON'T EAT                                    EAT,2403.078,2397.0396,2349.0005,2,2403.8647,right,2,right,right,eat,eat,avoid,pos,avoid-pos,1,1,786.7000000001863
sub-057,93,1,FALSE,right,avoid,pos,meat5_crop.jpg,2,10,TRUE,92,57,DON'T EAT                                    EAT,2405.0962,2397.0396,2349.0005,1,2405.797,right,1,left,left,not_eat,not_eat,avoid,pos,avoid-pos,1,1,700.7999999998137
sub-057,94,1,FALSE,right,avoid,pos,meat3_crop.jpg,2,10,TRUE,93,57,DON'T EAT                                    EAT,2407.1145,2397.0396,2349.0005,1,2407.8962,right,1,left,left,not_eat,not_eat,avoid,pos,avoid-pos,1,1,781.7000000001863
sub-057,95,1,FALSE,right,avoid,pos,meat32_crop.jpg,2,10,TRUE,94,57,DON'T EAT                                    EAT,2409.1328,2397.0396,2349.0005,1,2409.9292,right,1,left,left,not_eat,not_eat,avoid,pos,avoid-pos,1,1,796.4000000003725
sub-057,96,1,FALSE,right,avoid,pos,meat33_crop.jpg,2,10,TRUE,95,57,DON'T EAT                                    EAT,2411.1514,2397.0396,2349.0005,1,2412.1074,right,1,left,left,not_eat,not_eat,avoid,pos,avoid-pos,1,1,955.9999999995343
sub-057,97,1,FALSE,right,avoid,pos,meat22_crop.jpg,2,10,TRUE,96,57,DON'T EAT                                    EAT,2413.1692,2397.0396,2349.0005,1,2413.9534,right,1,left,left,not_eat,not_eat,avoid,pos,avoid-pos,1,1,784.2000000001863
sub-057,98,1,FALSE,right,avoid,pos,meat37_crop.jpg,2,10,TRUE,97,57,DON'T EAT                                    EAT,2415.188,2397.0396,2349.0005,1,2415.9827,right,1,left,left,not_eat,not_eat,avoid,pos,avoid-pos,1,1,794.7000000001863
sub-057,99,1,FALSE,right,avoid,pos,meat11_crop.jpg,2,10,TRUE,98,57,DON'T EAT                                    EAT,2417.206,2397.0396,2349.0005,1,2418.0205,right,1,left,left,not_eat,not_eat,avoid,pos,avoid-pos,1,1,814.5
sub-057,100,1,TRUE,right,approach,pos,cake8_crop.jpg,2,10,TRUE,99,57,DON'T EAT                                    EAT,2419.2246,2397.0396,2349.0005,2,2420.0532,right,2,right,right,eat,eat,avoid,pos,avoid-pos,1,1,828.5999999996275
sub-057,101,3,FALSE,left,avoid,neg,fungus8_crop.jpg,2,11,TRUE,100,57,DON'T EAT                                    EAT,2437.8728,2433.853,2349.0005,1,2438.7488,right,1,left,left,not_eat,not_eat,avoid,neg,avoid-neg,1,1,875.9999999995343
sub-057,102,3,FALSE,left,avoid,neg,fungus19_crop.jpg,2,11,TRUE,101,57,DON'T EAT                                    EAT,2439.8918,2433.853,2349.0005,1,2440.5618,right,1,left,left,not_eat,not_eat,avoid,neg,avoid-neg,1,1,670
sub-057,103,3,FALSE,left,avoid,neg,fungus37_crop.jpg,2,11,TRUE,102,57,DON'T EAT                                    EAT,2441.9102,2433.853,2349.0005,1,2442.614,right,1,left,left,not_eat,not_eat,avoid,neg,avoid-neg,1,1,703.8000000002794
sub-057,104,3,TRUE,left,approach,pos,cake10_crop.jpg,2,11,TRUE,103,57,DON'T EAT                                    EAT,2443.9285,2433.853,2349.0005,2,2444.8523,right,2,right,right,eat,eat,avoid,neg,avoid-neg,1,1,923.7999999998137
sub-057,105,3,FALSE,left,avoid,neg,fungus1_crop.jpg,2,11,TRUE,104,57,DON'T EAT                                    EAT,2445.9468,2433.853,2349.0005,1,2446.5967,right,1,left,left,not_eat,not_eat,avoid,neg,avoid-neg,1,1,649.8999999999069
sub-057,106,3,TRUE,left,approach,neg,insect7_crop.jpg,2,11,TRUE,105,57,DON'T EAT                                    EAT,2447.9646,2433.853,2349.0005,2,2448.6328,right,2,right,right,eat,eat,avoid,neg,avoid-neg,1,1,668.2000000001863
sub-057,107,3,FALSE,left,avoid,neg,fungus34_crop.jpg,2,11,TRUE,106,57,DON'T EAT                                    EAT,2449.9832,2433.853,2349.0005,1,2450.7283,right,1,left,left,not_eat,not_eat,avoid,neg,avoid-neg,1,1,745.1000000000931
sub-057,108,3,FALSE,left,avoid,neg,fungus17_crop.jpg,2,11,TRUE,107,57,DON'T EAT                                    EAT,2452.002,2433.853,2349.0005,1,2452.6836,right,1,left,left,not_eat,not_eat,avoid,neg,avoid-neg,1,1,681.5999999996275
sub-057,109,3,FALSE,left,avoid,neg,fungus7_crop.jpg,2,11,TRUE,108,57,DON'T EAT                                    EAT,2454.02,2433.853,2349.0005,1,2454.6707,right,1,left,left,not_eat,not_eat,avoid,neg,avoid-neg,1,1,650.7000000001863
sub-057,110,3,FALSE,left,avoid,neg,fungus16_crop.jpg,2,11,TRUE,109,57,DON'T EAT                                    EAT,2456.0386,2433.853,2349.0005,1,2456.7627,right,1,left,left,not_eat,not_eat,avoid,neg,avoid-neg,1,1,724.1000000005588
sub-057,111,1,FALSE,left,approach,neg,insect30_crop.jpg,2,12,TRUE,110,57,DON'T EAT                                    EAT,2472.235,2468.2314,2349.0005,2,2473.01,right,2,right,right,eat,eat,approach,neg,approach-neg,1,1,775
sub-057,112,1,FALSE,left,approach,neg,insect9_crop.jpg,2,12,TRUE,111,57,DON'T EAT                                    EAT,2474.2532,2468.2314,2349.0005,2,2474.9019,right,2,right,right,eat,eat,approach,neg,approach-neg,1,1,648.6999999997206
sub-057,113,1,FALSE,left,approach,neg,insect8_crop.jpg,2,12,TRUE,112,57,DON'T EAT                                    EAT,2476.2717,2468.2314,2349.0005,2,2476.933,right,2,right,right,eat,eat,approach,neg,approach-neg,1,1,661.3000000002794
sub-057,114,1,TRUE,left,avoid,neg,fungus11_crop.jpg,2,12,TRUE,113,57,DON'T EAT                                    EAT,2478.2896,2468.2314,2349.0005,1,2479.085,right,1,left,left,not_eat,not_eat,approach,neg,approach-neg,1,1,795.3999999999069
sub-057,115,1,FALSE,left,approach,neg,insect26_crop.jpg,2,12,TRUE,114,57,DON'T EAT                                    EAT,2480.3086,2468.2314,2349.0005,2,2481,right,2,right,right,eat,eat,approach,neg,approach-neg,1,1,691.4000000003725
sub-057,116,1,TRUE,left,avoid,pos,meat35_crop.jpg,2,12,TRUE,115,57,DON'T EAT                                    EAT,2482.327,2468.2314,2349.0005,1,2483.1848,right,1,left,left,not_eat,not_eat,approach,neg,approach-neg,1,1,857.7999999998137
sub-057,117,1,FALSE,left,approach,neg,insect21_crop.jpg,2,12,TRUE,116,57,DON'T EAT                                    EAT,2484.3452,2468.2314,2349.0005,1,2485.3018,right,1,left,left,not_eat,not_eat,approach,neg,approach-neg,0,0,956.6000000000931
sub-057,118,1,FALSE,left,approach,neg,insect15_crop.jpg,2,12,TRUE,117,57,DON'T EAT                                    EAT,2486.3633,2468.2314,2349.0005,1,2487.0142,right,1,left,left,not_eat,not_eat,approach,neg,approach-neg,0,0,650.9000000003725
sub-057,119,1,FALSE,left,approach,neg,insect6_crop.jpg,2,12,TRUE,118,57,DON'T EAT                                    EAT,2488.382,2468.2314,2349.0005,2,2489.4314,right,2,right,right,eat,eat,approach,neg,approach-neg,1,1,1049.3999999999069
sub-057,120,1,FALSE,left,approach,neg,insect29_crop.jpg,2,12,TRUE,119,57,DON'T EAT                                    EAT,2490.4004,2468.2314,2349.0005,2,2491.072,right,2,right,right,eat,eat,approach,neg,approach-neg,1,1,671.6000000000931
sub-057,121,3,TRUE,left,avoid,pos,meat32_crop.jpg,2,13,TRUE,120,57,DON'T EAT                                    EAT,2509.9834,2505.9634,2349.0005,1,2510.8542,right,1,left,left,not_eat,not_eat,approach,neg,approach-neg,1,1,870.8000000002794
sub-057,122,3,FALSE,left,approach,neg,insect36_crop.jpg,2,13,TRUE,121,57,DON'T EAT                                    EAT,2512.0017,2505.9634,2349.0005,2,2512.9363,right,2,right,right,eat,eat,approach,neg,approach-neg,1,1,934.6000000000931
sub-057,123,3,FALSE,left,approach,neg,insect13_crop.jpg,2,13,TRUE,122,57,DON'T EAT                                    EAT,2514.02,2505.9634,2349.0005,2,2514.689,right,2,right,right,eat,eat,approach,neg,approach-neg,1,1,669
sub-057,124,3,FALSE,left,approach,neg,insect28_crop.jpg,2,13,TRUE,123,57,DON'T EAT                                    EAT,2516.0383,2505.9634,2349.0005,2,2516.6472,right,2,right,right,eat,eat,approach,neg,approach-neg,1,1,608.8999999994412
sub-057,125,3,FALSE,left,approach,neg,insect11_crop.jpg,2,13,TRUE,124,57,DON'T EAT                                    EAT,2518.0562,2505.9634,2349.0005,2,2518.577,right,2,right,right,eat,eat,approach,neg,approach-neg,1,1,520.7999999998137
sub-057,126,3,FALSE,left,approach,neg,insect16_crop.jpg,2,13,TRUE,125,57,DON'T EAT                                    EAT,2520.075,2505.9634,2349.0005,2,2520.526,right,2,right,right,eat,eat,approach,neg,approach-neg,1,1,451
sub-057,127,3,TRUE,left,avoid,neg,fungus28_crop.jpg,2,13,TRUE,126,57,DON'T EAT                                    EAT,2522.0933,2505.9634,2349.0005,1,2522.8384,right,1,left,left,not_eat,not_eat,approach,neg,approach-neg,1,1,745.1000000000931
sub-057,128,3,FALSE,left,approach,neg,insect38_crop.jpg,2,13,TRUE,127,57,DON'T EAT                                    EAT,2524.1116,2505.9634,2349.0005,2,2524.752,right,2,right,right,eat,eat,approach,neg,approach-neg,1,1,640.3999999999069
sub-057,129,3,FALSE,left,approach,neg,insect34_crop.jpg,2,13,TRUE,128,57,DON'T EAT                                    EAT,2526.1301,2505.9634,2349.0005,2,2526.8218,right,2,right,right,eat,eat,approach,neg,approach-neg,1,1,691.7000000006519
sub-057,130,3,FALSE,left,approach,neg,insect24_crop.jpg,2,13,TRUE,129,57,DON'T EAT                                    EAT,2528.1477,2505.9634,2349.0005,2,2528.859,right,2,right,right,eat,eat,approach,neg,approach-neg,1,1,711.2999999998137
sub-057,131,2,FALSE,left,approach,pos,cake40_crop.jpg,2,14,TRUE,130,57,DON'T EAT                                    EAT,2545.079,2541.0586,2349.0005,2,2545.9175,right,2,right,right,eat,eat,approach,pos,approach-pos,1,1,838.5
sub-057,132,2,FALSE,left,approach,pos,cake24_crop.jpg,2,14,TRUE,131,57,DON'T EAT                                    EAT,2547.0974,2541.0586,2349.0005,2,2547.7783,right,2,right,right,eat,eat,approach,pos,approach-pos,1,1,680.8999999999069
sub-057,133,2,TRUE,left,avoid,pos,meat8_crop.jpg,2,14,TRUE,132,57,DON'T EAT                                    EAT,2549.1157,2541.0586,2349.0005,1,2550.0479,right,1,left,left,not_eat,not_eat,approach,pos,approach-pos,1,1,932.2000000001863
sub-057,134,2,FALSE,left,approach,pos,cake3_crop.jpg,2,14,TRUE,133,57,DON'T EAT                                    EAT,2551.1338,2541.0586,2349.0005,2,2551.837,right,2,right,right,eat,eat,approach,pos,approach-pos,1,1,703.1999999997206
sub-057,135,2,FALSE,left,approach,pos,cake36_crop.jpg,2,14,TRUE,134,57,DON'T EAT                                    EAT,2553.1523,2541.0586,2349.0005,2,2554.0327,right,2,right,right,eat,eat,approach,pos,approach-pos,1,1,880.3999999999069
sub-057,136,2,FALSE,left,approach,pos,cake22_crop.jpg,2,14,TRUE,135,57,DON'T EAT                                    EAT,2555.171,2541.0586,2349.0005,2,2555.8525,right,2,right,right,eat,eat,approach,pos,approach-pos,1,1,681.5
sub-057,137,2,FALSE,left,approach,pos,cake23_crop.jpg,2,14,TRUE,136,57,DON'T EAT                                    EAT,2557.1895,2541.0586,2349.0005,2,2557.8047,right,2,right,right,eat,eat,approach,pos,approach-pos,1,1,615.2000000001863
sub-057,138,2,FALSE,left,approach,pos,cake1_crop.jpg,2,14,TRUE,137,57,DON'T EAT                                    EAT,2559.207,2541.0586,2349.0005,2,2559.837,right,2,right,right,eat,eat,approach,pos,approach-pos,1,1,630
sub-057,139,2,TRUE,left,avoid,neg,fungus31_crop.jpg,2,14,TRUE,138,57,DON'T EAT                                    EAT,2561.2256,2541.0586,2349.0005,1,2562.1807,right,1,left,left,not_eat,not_eat,approach,pos,approach-pos,1,1,955.0999999996275
sub-057,140,2,FALSE,left,approach,pos,cake33_crop.jpg,2,14,TRUE,139,57,DON'T EAT                                    EAT,2563.2441,2541.0586,2349.0005,2,2563.9985,right,2,right,right,eat,eat,approach,pos,approach-pos,1,1,754.3999999999069
sub-057,141,0,FALSE,left,approach,neg,insect32_crop.jpg,2,15,TRUE,140,57,DON'T EAT                                    EAT,2582.1099,2578.0894,2349.0005,2,2583.0217,right,2,right,right,eat,eat,approach,neg,approach-neg,1,1,911.7999999998137
sub-057,142,0,TRUE,left,avoid,pos,meat6_crop.jpg,2,15,TRUE,141,57,DON'T EAT                                    EAT,2584.1282,2578.0894,2349.0005,1,2584.9573,right,1,left,left,not_eat,not_eat,approach,neg,approach-neg,1,1,829.0999999996275
sub-057,143,0,FALSE,left,approach,neg,insect12_crop.jpg,2,15,TRUE,142,57,DON'T EAT                                    EAT,2586.1462,2578.0894,2349.0005,2,2586.89,right,2,right,right,eat,eat,approach,neg,approach-neg,1,1,743.7999999998137
sub-057,144,0,FALSE,left,approach,neg,insect20_crop.jpg,2,15,TRUE,143,57,DON'T EAT                                    EAT,2588.1643,2578.0894,2349.0005,2,2588.9592,right,2,right,right,eat,eat,approach,neg,approach-neg,1,1,794.8999999999069
sub-057,145,0,FALSE,left,approach,neg,insect4_crop.jpg,2,15,TRUE,144,57,DON'T EAT                                    EAT,2590.183,2578.0894,2349.0005,2,2590.6855,right,2,right,right,eat,eat,approach,neg,approach-neg,1,1,502.5
sub-057,146,0,FALSE,left,approach,neg,insect40_crop.jpg,2,15,TRUE,145,57,DON'T EAT                                    EAT,2592.2012,2578.0894,2349.0005,2,2592.9666,right,2,right,right,eat,eat,approach,neg,approach-neg,1,1,765.3999999999069
sub-057,147,0,FALSE,left,approach,neg,insect5_crop.jpg,2,15,TRUE,146,57,DON'T EAT                                    EAT,2594.22,2578.0894,2349.0005,2,2594.8284,right,2,right,right,eat,eat,approach,neg,approach-neg,1,1,608.3999999999069
sub-057,148,0,TRUE,left,avoid,neg,fungus20_crop.jpg,2,15,TRUE,147,57,DON'T EAT                                    EAT,2596.2383,2578.0894,2349.0005,1,2597.5183,right,1,left,left,not_eat,not_eat,approach,neg,approach-neg,1,1,1280.0000000004657
sub-057,149,0,FALSE,left,approach,neg,insect22_crop.jpg,2,15,TRUE,148,57,DON'T EAT                                    EAT,2598.2559,2578.0894,2349.0005,2,2599.0623,right,2,right,right,eat,eat,approach,neg,approach-neg,1,1,806.4000000003725
sub-057,150,0,FALSE,left,approach,neg,insect2_crop.jpg,2,15,TRUE,149,57,DON'T EAT                                    EAT,2600.275,2578.0894,2349.0005,2,2601.229,right,2,right,right,eat,eat,approach,neg,approach-neg,1,1,954
sub-057,151,0,FALSE,left,approach,pos,cake28_crop.jpg,2,16,TRUE,150,57,DON'T EAT                                    EAT,2619.474,2615.454,2349.0005,2,2620.3333,right,2,right,right,eat,eat,approach,pos,approach-pos,1,1,859.2999999998137
sub-057,152,0,FALSE,left,approach,pos,cake37_crop.jpg,2,16,TRUE,151,57,DON'T EAT                                    EAT,2621.4924,2615.454,2349.0005,2,2622.2346,right,2,right,right,eat,eat,approach,pos,approach-pos,1,1,742.1999999997206
sub-057,153,0,FALSE,left,approach,pos,cake30_crop.jpg,2,16,TRUE,152,57,DON'T EAT                                    EAT,2623.511,2615.454,2349.0005,2,2624.024,right,2,right,right,eat,eat,approach,pos,approach-pos,1,1,513
sub-057,154,0,FALSE,left,approach,pos,cake39_crop.jpg,2,16,TRUE,153,57,DON'T EAT                                    EAT,2625.5293,2615.454,2349.0005,2,2626.1895,right,2,right,right,eat,eat,approach,pos,approach-pos,1,1,660.1999999997206
sub-057,155,0,TRUE,left,avoid,pos,meat18_crop.jpg,2,16,TRUE,154,57,DON'T EAT                                    EAT,2627.5476,2615.454,2349.0005,1,2628.6108,right,1,left,left,not_eat,not_eat,approach,pos,approach-pos,1,1,1063.1999999997206
sub-057,156,0,FALSE,left,approach,pos,cake25_crop.jpg,2,16,TRUE,155,57,DON'T EAT                                    EAT,2629.566,2615.454,2349.0005,2,2630.2686,right,2,right,right,eat,eat,approach,pos,approach-pos,1,1,702.6000000000931
sub-057,157,0,TRUE,left,avoid,neg,fungus30_crop.jpg,2,16,TRUE,156,57,DON'T EAT                                    EAT,2631.5842,2615.454,2349.0005,1,2632.6523,right,1,left,left,not_eat,not_eat,approach,pos,approach-pos,1,1,1068.1000000005588
sub-057,158,0,FALSE,left,approach,pos,cake6_crop.jpg,2,16,TRUE,157,57,DON'T EAT                                    EAT,2633.6023,2615.454,2349.0005,2,2634.4116,right,2,right,right,eat,eat,approach,pos,approach-pos,1,1,809.3000000002794
sub-057,159,0,FALSE,left,approach,pos,cake17_crop.jpg,2,16,TRUE,158,57,DON'T EAT                                    EAT,2635.6208,2615.454,2349.0005,2,2636.251,right,2,right,right,eat,eat,approach,pos,approach-pos,1,1,630.1999999997206
sub-057,160,0,FALSE,left,approach,pos,cake21_crop.jpg,2,16,TRUE,159,57,DON'T EAT                                    EAT,2637.6394,2615.454,2349.0005,2,2638.4746,right,2,right,right,eat,eat,approach,pos,approach-pos,1,1,835.2000000001863
sub-057,161,3,FALSE,left,avoid,pos,meat12_crop.jpg,3,17,TRUE,160,57,DON'T EAT                                    EAT,2829.5486,2825.528,2813.7815,1,2830.4607,left,1,left,left,not_eat,not_eat,avoid,pos,avoid-pos,1,1,912.1000000000931
sub-057,162,3,TRUE,left,approach,pos,cake12_crop.jpg,3,17,TRUE,161,57,DON'T EAT                                    EAT,2831.567,2825.528,2813.7815,2,2832.4922,left,2,right,right,eat,eat,avoid,pos,avoid-pos,1,1,925.2000000001863
sub-057,163,3,FALSE,left,avoid,pos,meat7_crop.jpg,3,17,TRUE,162,57,DON'T EAT                                    EAT,2833.5852,2825.528,2813.7815,1,2834.2239,left,1,left,left,not_eat,not_eat,avoid,pos,avoid-pos,1,1,638.6999999997206
sub-057,164,3,FALSE,left,avoid,pos,meat21_crop.jpg,3,17,TRUE,163,57,DON'T EAT                                    EAT,2835.6035,2825.528,2813.7815,1,2836.2527,left,1,left,left,not_eat,not_eat,avoid,pos,avoid-pos,1,1,649.2000000001863
sub-057,165,3,FALSE,left,avoid,pos,meat11_crop.jpg,3,17,TRUE,164,57,DON'T EAT                                    EAT,2837.622,2825.528,2813.7815,1,2838.23,left,1,left,left,not_eat,not_eat,avoid,pos,avoid-pos,1,1,608
sub-057,166,3,FALSE,left,avoid,pos,meat17_crop.jpg,3,17,TRUE,165,57,DON'T EAT                                    EAT,2839.6404000000002,2825.528,2813.7815,1,2840.301,left,1,left,left,not_eat,not_eat,avoid,pos,avoid-pos,1,1,660.5999999996275
sub-057,167,3,FALSE,left,avoid,pos,meat24_crop.jpg,3,17,TRUE,166,57,DON'T EAT                                    EAT,2841.6584,2825.528,2813.7815,1,2842.2246,left,1,left,left,not_eat,not_eat,avoid,pos,avoid-pos,1,1,566.2000000001863
sub-057,168,3,TRUE,left,approach,neg,insect35_crop.jpg,3,17,TRUE,167,57,DON'T EAT                                    EAT,2843.677,2825.528,2813.7815,2,2844.4963,left,2,right,right,eat,eat,avoid,pos,avoid-pos,1,1,819.2999999998137
sub-057,169,3,FALSE,left,avoid,pos,meat5_crop.jpg,3,17,TRUE,168,57,DON'T EAT                                    EAT,2845.6953,2825.528,2813.7815,1,2846.387,left,1,left,left,not_eat,not_eat,avoid,pos,avoid-pos,1,1,691.7000000001863
sub-057,170,3,FALSE,left,avoid,pos,meat33_crop.jpg,3,17,TRUE,169,57,DON'T EAT                                    EAT,2847.7134,2825.528,2813.7815,1,2848.5588,left,1,left,left,not_eat,not_eat,avoid,pos,avoid-pos,1,1,845.3999999999069
sub-057,171,1,TRUE,left,avoid,neg,fungus3_crop.jpg,3,18,TRUE,170,57,DON'T EAT                                    EAT,2865.862,2861.8423,2813.7815,1,2867.7297,left,1,left,left,not_eat,not_eat,approach,pos,approach-pos,1,1,1867.6999999997206
sub-057,172,1,FALSE,left,approach,pos,cake2_crop.jpg,3,18,TRUE,171,57,DON'T EAT                                    EAT,2867.8804,2861.8423,2813.7815,2,2868.6204,left,2,right,right,eat,eat,approach,pos,approach-pos,1,1,740
sub-057,173,1,FALSE,left,approach,pos,cake14_crop.jpg,3,18,TRUE,172,57,DON'T EAT                                    EAT,2869.899,2861.8423,2813.7815,2,2870.5059,left,2,right,right,eat,eat,approach,pos,approach-pos,1,1,606.8999999999069
sub-057,174,1,FALSE,left,approach,pos,cake32_crop.jpg,3,18,TRUE,173,57,DON'T EAT                                    EAT,2871.9172,2861.8423,2813.7815,2,2872.7764,left,2,right,right,eat,eat,approach,pos,approach-pos,1,1,859.2000000006519
sub-057,175,1,FALSE,left,approach,pos,cake34_crop.jpg,3,18,TRUE,174,57,DON'T EAT                                    EAT,2873.9355,2861.8423,2813.7815,2,2874.8142,left,2,right,right,eat,eat,approach,pos,approach-pos,1,1,878.6999999997206
sub-057,176,1,FALSE,left,approach,pos,cake9_crop.jpg,3,18,TRUE,175,57,DON'T EAT                                    EAT,2875.9539,2861.8423,2813.7815,2,2876.6057,left,2,right,right,eat,eat,approach,pos,approach-pos,1,1,651.8000000002794
sub-057,177,1,FALSE,left,approach,pos,cake38_crop.jpg,3,18,TRUE,176,57,DON'T EAT                                    EAT,2877.9722,2861.8423,2813.7815,2,2878.628,left,2,right,right,eat,eat,approach,pos,approach-pos,1,1,655.7999999998137
sub-057,178,1,FALSE,left,approach,pos,cake13_crop.jpg,3,18,TRUE,177,57,DON'T EAT                                    EAT,2879.9905,2861.8423,2813.7815,2,2880.703,left,2,right,right,eat,eat,approach,pos,approach-pos,1,1,712.5
sub-057,179,1,FALSE,left,approach,pos,cake27_crop.jpg,3,18,TRUE,178,57,DON'T EAT                                    EAT,2882.0088,2861.8423,2813.7815,2,2882.5964,left,2,right,right,eat,eat,approach,pos,approach-pos,1,1,587.5999999996275
sub-057,180,1,TRUE,left,avoid,pos,meat20_crop.jpg,3,18,TRUE,179,57,DON'T EAT                                    EAT,2884.0273,2861.8423,2813.7815,1,2884.8025,left,1,left,left,not_eat,not_eat,approach,pos,approach-pos,1,1,775.1999999997206
sub-057,181,1,FALSE,right,approach,pos,cake29_crop.jpg,3,19,TRUE,180,57,DON'T EAT                                    EAT,2900.324,2896.304,2813.7815,2,2901.1716,left,2,right,right,eat,eat,approach,pos,approach-pos,1,1,847.6000000000931
sub-057,182,1,TRUE,right,avoid,neg,fungus12_crop.jpg,3,19,TRUE,181,57,DON'T EAT                                    EAT,2902.3423,2896.304,2813.7815,1,2903.0872,left,1,left,left,not_eat,not_eat,approach,pos,approach-pos,1,1,744.8999999999069
sub-057,183,1,FALSE,right,approach,pos,cake22_crop.jpg,3,19,TRUE,182,57,DON'T EAT                                    EAT,2904.3608,2896.304,2813.7815,2,2905.094,left,2,right,right,eat,eat,approach,pos,approach-pos,1,1,733.2000000001863
sub-057,184,1,FALSE,right,approach,pos,cake1_crop.jpg,3,19,TRUE,183,57,DON'T EAT                                    EAT,2906.3792,2896.304,2813.7815,2,2907.039,left,2,right,right,eat,eat,approach,pos,approach-pos,1,1,659.8000000002794
sub-057,185,1,FALSE,right,approach,pos,cake25_crop.jpg,3,19,TRUE,184,57,DON'T EAT                                    EAT,2908.397,2896.304,2813.7815,2,2909.0325,left,2,right,right,eat,eat,approach,pos,approach-pos,1,1,635.5
sub-057,186,1,TRUE,right,avoid,pos,meat39_crop.jpg,3,19,TRUE,185,57,DON'T EAT                                    EAT,2910.4158,2896.304,2813.7815,1,2911.2542,left,1,left,left,not_eat,not_eat,approach,pos,approach-pos,1,1,838.3999999994412
sub-057,187,1,FALSE,right,approach,pos,cake40_crop.jpg,3,19,TRUE,186,57,DON'T EAT                                    EAT,2912.434,2896.304,2813.7815,2,2913.1587,left,2,right,right,eat,eat,approach,pos,approach-pos,1,1,724.7000000001863
sub-057,188,1,FALSE,right,approach,pos,cake37_crop.jpg,3,19,TRUE,187,57,DON'T EAT                                    EAT,2914.4524,2896.304,2813.7815,2,2915.2488,left,2,right,right,eat,eat,approach,pos,approach-pos,1,1,796.3999999999069
sub-057,189,1,FALSE,right,approach,pos,cake20_crop.jpg,3,19,TRUE,188,57,DON'T EAT                                    EAT,2916.4705,2896.304,2813.7815,2,2917.3088,left,2,right,right,eat,eat,approach,pos,approach-pos,1,1,838.2999999998137
sub-057,190,1,FALSE,right,approach,pos,cake21_crop.jpg,3,19,TRUE,189,57,DON'T EAT                                    EAT,2918.4888,2896.304,2813.7815,2,2919.125,left,2,right,right,eat,eat,approach,pos,approach-pos,1,1,636.1999999997206
sub-057,191,0,FALSE,left,avoid,neg,fungus10_crop.jpg,3,20,TRUE,190,57,DON'T EAT                                    EAT,2935.036,2931.016,2813.7815,1,2936.0952,left,1,left,left,not_eat,not_eat,avoid,neg,avoid-neg,1,1,1059.2000000001863
sub-057,192,0,FALSE,left,avoid,neg,fungus36_crop.jpg,3,20,TRUE,191,57,DON'T EAT                                    EAT,2937.0547,2931.016,2813.7815,1,2937.6921,left,1,left,left,not_eat,not_eat,avoid,neg,avoid-neg,1,1,637.3999999999069
sub-057,193,0,FALSE,left,avoid,neg,fungus27_crop.jpg,3,20,TRUE,192,57,DON'T EAT                                    EAT,2939.0728,2931.016,2813.7815,1,2939.5547,left,1,left,left,not_eat,not_eat,avoid,neg,avoid-neg,1,1,481.90000000037253
sub-057,194,0,FALSE,left,avoid,neg,fungus40_crop.jpg,3,20,TRUE,193,57,DON'T EAT                                    EAT,2941.0913,2931.016,2813.7815,1,2941.6997,left,1,left,left,not_eat,not_eat,avoid,neg,avoid-neg,1,1,608.4000000003725
sub-057,195,0,FALSE,left,avoid,neg,fungus5_crop.jpg,3,20,TRUE,194,57,DON'T EAT                                    EAT,2943.1096,2931.016,2813.7815,1,2943.9167,left,1,left,left,not_eat,not_eat,avoid,neg,avoid-neg,1,1,807.1000000005588
sub-057,196,0,TRUE,left,approach,pos,cake5_crop.jpg,3,20,TRUE,195,57,DON'T EAT                                    EAT,2945.128,2931.016,2813.7815,2,2945.9038,left,2,right,right,eat,eat,avoid,neg,avoid-neg,1,1,775.7999999998137
sub-057,197,0,TRUE,left,approach,neg,insect1_crop.jpg,3,20,TRUE,196,57,DON'T EAT                                    EAT,2947.1462,2931.016,2813.7815,1,2947.6807,left,1,left,left,not_eat,not_eat,avoid,neg,avoid-neg,0,0,534.4999999995343
sub-057,198,0,FALSE,left,avoid,neg,fungus26_crop.jpg,3,20,TRUE,197,57,DON'T EAT                                    EAT,2949.1646,2931.016,2813.7815,1,2949.795,left,1,left,left,not_eat,not_eat,avoid,neg,avoid-neg,1,1,630.3999999999069
sub-057,199,0,FALSE,left,avoid,neg,fungus38_crop.jpg,3,20,TRUE,198,57,DON'T EAT                                    EAT,2951.1829,2931.016,2813.7815,1,2951.9788,left,1,left,left,not_eat,not_eat,avoid,neg,avoid-neg,1,1,795.8999999999069
sub-057,200,0,FALSE,left,avoid,neg,fungus13_crop.jpg,3,20,TRUE,199,57,DON'T EAT                                    EAT,2953.2007,2931.016,2813.7815,1,2953.9788,left,1,left,left,not_eat,not_eat,avoid,neg,avoid-neg,1,1,778.1000000000931
sub-057,201,1,FALSE,right,avoid,neg,fungus23_crop.jpg,3,21,TRUE,200,57,DON'T EAT                                    EAT,2972.4175,2968.397,2813.7815,1,2973.257,left,1,left,left,not_eat,not_eat,avoid,neg,avoid-neg,1,1,839.5
sub-057,202,1,TRUE,right,approach,neg,insect15_crop.jpg,3,21,TRUE,201,57,DON'T EAT                                    EAT,2974.4355,2968.397,2813.7815,2,2975.2642,left,2,right,right,eat,eat,avoid,neg,avoid-neg,1,1,828.7000000001863
sub-057,203,1,FALSE,right,avoid,neg,fungus14_crop.jpg,3,21,TRUE,202,57,DON'T EAT                                    EAT,2976.4539,2968.397,2813.7815,1,2977.2607,left,1,left,left,not_eat,not_eat,avoid,neg,avoid-neg,1,1,806.7999999998137
sub-057,204,1,FALSE,right,avoid,neg,fungus19_crop.jpg,3,21,TRUE,203,57,DON'T EAT                                    EAT,2978.4717,2968.397,2813.7815,1,2979.4343,left,1,left,left,not_eat,not_eat,avoid,neg,avoid-neg,1,1,962.5999999996275
sub-057,205,1,FALSE,right,avoid,neg,fungus27_crop.jpg,3,21,TRUE,204,57,DON'T EAT                                    EAT,2980.4907,2968.397,2813.7815,1,2981.3909,left,1,left,left,not_eat,not_eat,avoid,neg,avoid-neg,1,1,900.2000000001863
sub-057,206,1,FALSE,right,avoid,neg,fungus29_crop.jpg,3,21,TRUE,205,57,DON'T EAT                                    EAT,2982.5083,2968.397,2813.7815,1,2983.0945,left,1,left,left,not_eat,not_eat,avoid,neg,avoid-neg,1,1,586.2000000001863
sub-057,207,1,FALSE,right,avoid,neg,fungus34_crop.jpg,3,21,TRUE,206,57,DON'T EAT                                    EAT,2984.5273,2968.397,2813.7815,1,2985.0525,left,1,left,left,not_eat,not_eat,avoid,neg,avoid-neg,1,1,525.1999999997206
sub-057,208,1,FALSE,right,avoid,neg,fungus18_crop.jpg,3,21,TRUE,207,57,DON'T EAT                                    EAT,2986.5457,2968.397,2813.7815,1,2987.2068,left,1,left,left,not_eat,not_eat,avoid,neg,avoid-neg,1,1,661.0999999996275
sub-057,209,1,FALSE,right,avoid,neg,fungus10_crop.jpg,3,21,TRUE,208,57,DON'T EAT                                    EAT,2988.5635,2968.397,2813.7815,1,2989.0955,left,1,left,left,not_eat,not_eat,avoid,neg,avoid-neg,1,1,532
sub-057,210,1,TRUE,right,approach,pos,cake10_crop.jpg,3,21,TRUE,209,57,DON'T EAT                                    EAT,2990.5823,2968.397,2813.7815,2,2991.5051,left,2,right,right,eat,eat,avoid,neg,avoid-neg,1,1,922.7999999998137
sub-057,211,3,FALSE,right,approach,neg,insect29_crop.jpg,3,22,TRUE,210,57,DON'T EAT                                    EAT,3009.6816,3005.6611,2813.7815,2,3010.6125,left,2,right,right,eat,eat,approach,neg,approach-neg,1,1,930.8999999999069
sub-057,212,3,FALSE,right,approach,neg,insect27_crop.jpg,3,22,TRUE,211,57,DON'T EAT                                    EAT,3011.6997,3005.6611,2813.7815,2,3012.413,left,2,right,right,eat,eat,approach,neg,approach-neg,1,1,713.2999999998137
sub-057,213,3,TRUE,right,avoid,pos,meat8_crop.jpg,3,22,TRUE,212,57,DON'T EAT                                    EAT,3013.7183,3005.6611,2813.7815,1,3014.4937,left,1,left,left,not_eat,not_eat,approach,neg,approach-neg,1,1,775.4000000003725
sub-057,214,3,FALSE,right,approach,neg,insect23_crop.jpg,3,22,TRUE,213,57,DON'T EAT                                    EAT,3015.7366,3005.6611,2813.7815,2,3016.5007,left,2,right,right,eat,eat,approach,neg,approach-neg,1,1,764.1000000000931
sub-057,215,3,FALSE,right,approach,neg,insect34_crop.jpg,3,22,TRUE,214,57,DON'T EAT                                    EAT,3017.7554,3005.6611,2813.7815,2,3018.4138,left,2,right,right,eat,eat,approach,neg,approach-neg,1,1,658.3999999999069
sub-057,216,3,TRUE,right,avoid,neg,fungus6_crop.jpg,3,22,TRUE,215,57,DON'T EAT                                    EAT,3019.7732,3005.6611,2813.7815,1,3020.4863,left,1,left,left,not_eat,not_eat,approach,neg,approach-neg,1,1,713.0999999996275
sub-057,217,3,FALSE,right,approach,neg,insect5_crop.jpg,3,22,TRUE,216,57,DON'T EAT                                    EAT,3021.7915,3005.6611,2813.7815,2,3023.019,left,2,right,right,eat,eat,approach,neg,approach-neg,1,1,1227.5
sub-057,218,3,FALSE,right,approach,neg,insect22_crop.jpg,3,22,TRUE,217,57,DON'T EAT                                    EAT,3023.81,3005.6611,2813.7815,2,3024.5337,left,2,right,right,eat,eat,approach,neg,approach-neg,1,1,723.7000000001863
sub-057,219,3,FALSE,right,approach,neg,insect12_crop.jpg,3,22,TRUE,218,57,DON'T EAT                                    EAT,3025.8284,3005.6611,2813.7815,2,3026.4265,left,2,right,right,eat,eat,approach,neg,approach-neg,1,1,598.1000000000931
sub-057,220,3,FALSE,right,approach,neg,insect24_crop.jpg,3,22,TRUE,219,57,DON'T EAT                                    EAT,3027.8467,3005.6611,2813.7815,2,3028.5256,left,2,right,right,eat,eat,approach,neg,approach-neg,1,1,678.8999999999069
sub-057,221,3,FALSE,right,approach,pos,cake5_crop.jpg,3,23,TRUE,220,57,DON'T EAT                                    EAT,3045.7283,3041.708,2813.7815,2,3046.6917,left,2,right,right,eat,eat,approach,pos,approach-pos,1,1,963.3999999994412
sub-057,222,3,FALSE,right,approach,pos,cake36_crop.jpg,3,23,TRUE,221,57,DON'T EAT                                    EAT,3047.7466,3041.708,2813.7815,2,3048.3728,left,2,right,right,eat,eat,approach,pos,approach-pos,1,1,626.2000000001863
sub-057,223,3,FALSE,right,approach,pos,cake28_crop.jpg,3,23,TRUE,222,57,DON'T EAT                                    EAT,3049.765,3041.708,2813.7815,2,3050.3818,left,2,right,right,eat,eat,approach,pos,approach-pos,1,1,616.8000000002794
sub-057,224,3,TRUE,right,avoid,neg,fungus4_crop.jpg,3,23,TRUE,223,57,DON'T EAT                                    EAT,3051.7832,3041.708,2813.7815,1,3052.517,left,1,left,left,not_eat,not_eat,approach,pos,approach-pos,1,1,733.8000000002794
sub-057,225,3,FALSE,right,approach,pos,cake13_crop.jpg,3,23,TRUE,224,57,DON'T EAT                                    EAT,3053.8015,3041.708,2813.7815,2,3054.7563,left,2,right,right,eat,eat,approach,pos,approach-pos,1,1,954.7999999998137
sub-057,226,3,FALSE,right,approach,pos,cake16_crop.jpg,3,23,TRUE,225,57,DON'T EAT                                    EAT,3055.8198,3041.708,2813.7815,2,3056.4387,left,2,right,right,eat,eat,approach,pos,approach-pos,1,1,618.8999999999069
sub-057,227,3,FALSE,right,approach,pos,cake2_crop.jpg,3,23,TRUE,226,57,DON'T EAT                                    EAT,3057.8381,3041.708,2813.7815,2,3058.569,left,2,right,right,eat,eat,approach,pos,approach-pos,1,1,730.8999999999069
sub-057,228,3,TRUE,right,avoid,pos,meat36_crop.jpg,3,23,TRUE,227,57,DON'T EAT                                    EAT,3059.8567,3041.708,2813.7815,1,3060.5498,left,1,left,left,not_eat,not_eat,approach,pos,approach-pos,1,1,693.1000000000931
sub-057,229,3,FALSE,right,approach,pos,cake26_crop.jpg,3,23,TRUE,228,57,DON'T EAT                                    EAT,3061.8748,3041.708,2813.7815,2,3062.5452,left,2,right,right,eat,eat,approach,pos,approach-pos,1,1,670.3999999999069
sub-057,230,3,FALSE,right,approach,pos,cake12_crop.jpg,3,23,TRUE,229,57,DON'T EAT                                    EAT,3063.893,3041.708,2813.7815,2,3064.7107,left,2,right,right,eat,eat,approach,pos,approach-pos,1,1,817.7000000001863
sub-057,231,0,FALSE,right,approach,neg,insect19_crop.jpg,3,24,TRUE,230,57,DON'T EAT                                    EAT,3080.2063,3076.2031,2813.7815,2,3081.1384,left,2,right,right,eat,eat,approach,neg,approach-neg,1,1,932.1000000000931
sub-057,232,0,TRUE,right,avoid,neg,fungus32_crop.jpg,3,24,TRUE,231,57,DON'T EAT                                    EAT,3082.225,3076.2031,2813.7815,1,3082.925,left,1,left,left,not_eat,not_eat,approach,neg,approach-neg,1,1,700
sub-057,233,0,FALSE,right,approach,neg,insect1_crop.jpg,3,24,TRUE,232,57,DON'T EAT                                    EAT,3084.2434,3076.2031,2813.7815,2,3084.997,left,2,right,right,eat,eat,approach,neg,approach-neg,1,1,753.6000000000931
sub-057,234,0,FALSE,right,approach,neg,insect7_crop.jpg,3,24,TRUE,233,57,DON'T EAT                                    EAT,3086.2615,3076.2031,2813.7815,2,3086.8596,left,2,right,right,eat,eat,approach,neg,approach-neg,1,1,598.0999999996275
sub-057,235,0,FALSE,right,approach,neg,insect11_crop.jpg,3,24,TRUE,234,57,DON'T EAT                                    EAT,3088.2803,3076.2031,2813.7815,2,3090.15,left,2,right,right,eat,eat,approach,neg,approach-neg,1,1,1869.7000000001863
sub-057,236,0,FALSE,right,approach,neg,insect37_crop.jpg,3,24,TRUE,235,57,DON'T EAT                                    EAT,3090.2986,3076.2031,2813.7815,2,3091.0637,left,2,right,right,eat,eat,approach,neg,approach-neg,1,1,765.1000000000931
sub-057,237,0,FALSE,right,approach,neg,insect33_crop.jpg,3,24,TRUE,236,57,DON'T EAT                                    EAT,3092.3167,3076.2031,2813.7815,2,3093.0198,left,2,right,right,eat,eat,approach,neg,approach-neg,1,1,703.1000000000931
sub-057,238,0,FALSE,right,approach,neg,insect13_crop.jpg,3,24,TRUE,237,57,DON'T EAT                                    EAT,3094.3352,3076.2031,2813.7815,2,3094.985,left,2,right,right,eat,eat,approach,neg,approach-neg,1,1,649.7999999998137
sub-057,239,0,TRUE,right,avoid,pos,meat31_crop.jpg,3,24,TRUE,238,57,DON'T EAT                                    EAT,3096.3533,3076.2031,2813.7815,1,3097.1394,left,1,left,left,not_eat,not_eat,approach,neg,approach-neg,1,1,786.0999999996275
sub-057,240,0,FALSE,right,approach,neg,insect35_crop.jpg,3,24,TRUE,239,57,DON'T EAT                                    EAT,3098.3713,3076.2031,2813.7815,2,3099.2039,left,2,right,right,eat,eat,approach,neg,approach-neg,1,1,832.6000000000931
sub-057,241,0,FALSE,right,avoid,pos,meat14_crop.jpg,4,25,TRUE,240,57,DON'T EAT                                    EAT,3207.4124,3203.392,3190.7656,1,3208.6357,right,1,left,left,not_eat,not_eat,avoid,pos,avoid-pos,1,1,1223.299999999348
sub-057,242,0,TRUE,right,approach,pos,cake17_crop.jpg,4,25,TRUE,241,57,DON'T EAT                                    EAT,3209.4307,3203.392,3190.7656,2,3210.124,right,2,right,right,eat,eat,avoid,pos,avoid-pos,1,1,693.3000000002794
sub-057,243,0,FALSE,right,avoid,pos,meat34_crop.jpg,4,25,TRUE,242,57,DON'T EAT                                    EAT,3211.449,3203.392,3190.7656,1,3212.4875,right,1,left,left,not_eat,not_eat,avoid,pos,avoid-pos,1,1,1038.5
sub-057,244,0,FALSE,right,avoid,pos,meat29_crop.jpg,4,25,TRUE,243,57,DON'T EAT                                    EAT,3213.4673,3203.392,3190.7656,1,3214.2952,right,1,left,left,not_eat,not_eat,avoid,pos,avoid-pos,1,1,827.9000000003725
sub-057,245,0,FALSE,right,avoid,pos,meat13_crop.jpg,4,25,TRUE,244,57,DON'T EAT                                    EAT,3215.4858,3203.392,3190.7656,1,3216.1367,right,1,left,left,not_eat,not_eat,avoid,pos,avoid-pos,1,1,650.9000000003725
sub-057,246,0,FALSE,right,avoid,pos,meat26_crop.jpg,4,25,TRUE,245,57,DON'T EAT                                    EAT,3217.5042,3203.392,3190.7656,1,3218.271,right,1,left,left,not_eat,not_eat,avoid,pos,avoid-pos,1,1,766.8000000002794
sub-057,247,0,FALSE,right,avoid,pos,meat25_crop.jpg,4,25,TRUE,246,57,DON'T EAT                                    EAT,3219.5222,3203.392,3190.7656,1,3220.3108,right,1,left,left,not_eat,not_eat,avoid,pos,avoid-pos,1,1,788.6000000005588
sub-057,248,0,FALSE,right,avoid,pos,meat12_crop.jpg,4,25,TRUE,247,57,DON'T EAT                                    EAT,3221.541,3203.392,3190.7656,1,3222.3474,right,1,left,left,not_eat,not_eat,avoid,pos,avoid-pos,1,1,806.3999999999069
sub-057,249,0,TRUE,right,approach,neg,insect40_crop.jpg,4,25,TRUE,248,57,DON'T EAT                                    EAT,3223.559,3203.392,3190.7656,2,3224.45,right,2,right,right,eat,eat,avoid,pos,avoid-pos,1,1,891
sub-057,250,0,FALSE,right,avoid,pos,meat18_crop.jpg,4,25,TRUE,249,57,DON'T EAT                                    EAT,3225.5774,3203.392,3190.7656,1,3226.2346,right,1,left,left,not_eat,not_eat,avoid,pos,avoid-pos,1,1,657.1999999997206
sub-057,251,2,FALSE,right,avoid,pos,meat10_crop.jpg,4,26,TRUE,250,57,DON'T EAT                                    EAT,3241.7573,3237.754,3190.7656,1,3242.9822,right,1,left,left,not_eat,not_eat,avoid,pos,avoid-pos,1,1,1224.8999999994412
sub-057,252,2,FALSE,right,avoid,pos,meat16_crop.jpg,4,26,TRUE,251,57,DON'T EAT                                    EAT,3243.776,3237.754,3190.7656,1,3244.5183,right,1,left,left,not_eat,not_eat,avoid,pos,avoid-pos,1,1,742.3000000002794
sub-057,253,2,FALSE,right,avoid,pos,meat27_crop.jpg,4,26,TRUE,252,57,DON'T EAT                                    EAT,3245.7942,3237.754,3190.7656,1,3246.4028,right,1,left,left,not_eat,not_eat,avoid,pos,avoid-pos,1,1,608.6000000000931
sub-057,254,2,FALSE,right,avoid,pos,meat4_crop.jpg,4,26,TRUE,253,57,DON'T EAT                                    EAT,3247.8123,3237.754,3190.7656,1,3248.4824,right,1,left,left,not_eat,not_eat,avoid,pos,avoid-pos,1,1,670.0999999996275
sub-057,255,2,TRUE,right,approach,pos,cake34_crop.jpg,4,26,TRUE,254,57,DON'T EAT                                    EAT,3249.831,3237.754,3190.7656,2,3250.6487,right,2,right,right,eat,eat,avoid,pos,avoid-pos,1,1,817.7000000001863
sub-057,256,2,FALSE,right,avoid,pos,meat35_crop.jpg,4,26,TRUE,255,57,DON'T EAT                                    EAT,3251.8494,3237.754,3190.7656,1,3252.6055,right,1,left,left,not_eat,not_eat,avoid,pos,avoid-pos,1,1,756.1000000000931
sub-057,257,2,FALSE,right,avoid,pos,meat1_crop.jpg,4,26,TRUE,256,57,DON'T EAT                                    EAT,3253.8672,3237.754,3190.7656,1,3254.5813,right,1,left,left,not_eat,not_eat,avoid,pos,avoid-pos,1,1,714.0999999996275
sub-057,258,2,TRUE,right,approach,neg,insect20_crop.jpg,4,26,TRUE,257,57,DON'T EAT                                    EAT,3255.886,3237.754,3190.7656,2,3256.842,right,2,right,right,eat,eat,avoid,pos,avoid-pos,1,1,956
sub-057,259,2,FALSE,right,avoid,pos,meat6_crop.jpg,4,26,TRUE,258,57,DON'T EAT                                    EAT,3257.904,3237.754,3190.7656,1,3258.72,right,1,left,left,not_eat,not_eat,avoid,pos,avoid-pos,1,1,816
sub-057,260,2,FALSE,right,avoid,pos,meat9_crop.jpg,4,26,TRUE,259,57,DON'T EAT                                    EAT,3259.9226,3237.754,3190.7656,1,3260.8457,right,1,left,left,not_eat,not_eat,avoid,pos,avoid-pos,1,1,923.0999999996275
sub-057,261,3,FALSE,left,approach,pos,cake29_crop.jpg,4,27,TRUE,260,57,DON'T EAT                                    EAT,3278.4214,3274.4014,3190.7656,2,3279.3594,right,2,right,right,eat,eat,approach,pos,approach-pos,1,1,937.9999999995343
sub-057,262,3,FALSE,left,approach,pos,cake11_crop.jpg,4,27,TRUE,261,57,DON'T EAT                                    EAT,3280.44,3274.4014,3190.7656,2,3281.0164,right,2,right,right,eat,eat,approach,pos,approach-pos,1,1,576.3999999999069
sub-057,263,3,FALSE,left,approach,pos,cake19_crop.jpg,4,27,TRUE,262,57,DON'T EAT                                    EAT,3282.4583,3274.4014,3190.7656,2,3283.2532,right,2,right,right,eat,eat,approach,pos,approach-pos,1,1,794.9000000003725
sub-057,264,3,FALSE,left,approach,pos,cake31_crop.jpg,4,27,TRUE,263,57,DON'T EAT                                    EAT,3284.4763,3274.4014,3190.7656,2,3285.1465,right,2,right,right,eat,eat,approach,pos,approach-pos,1,1,670.2000000001863
sub-057,265,3,FALSE,left,approach,pos,cake26_crop.jpg,4,27,TRUE,264,57,DON'T EAT                                    EAT,3286.4949,3274.4014,3190.7656,2,3287.1665,right,2,right,right,eat,eat,approach,pos,approach-pos,1,1,671.5999999996275
sub-057,266,3,FALSE,left,approach,pos,cake18_crop.jpg,4,27,TRUE,265,57,DON'T EAT                                    EAT,3288.5127,3274.4014,3190.7656,2,3289.2615,right,2,right,right,eat,eat,approach,pos,approach-pos,1,1,748.7999999998137
sub-057,267,3,FALSE,left,approach,pos,cake20_crop.jpg,4,27,TRUE,266,57,DON'T EAT                                    EAT,3290.5312,3274.4014,3190.7656,2,3291.192,right,2,right,right,eat,eat,approach,pos,approach-pos,1,1,660.8000000002794
sub-057,268,3,TRUE,left,avoid,neg,fungus21_crop.jpg,4,27,TRUE,267,57,DON'T EAT                                    EAT,3292.55,3274.4014,3190.7656,1,3293.432,right,1,left,left,not_eat,not_eat,approach,pos,approach-pos,1,1,882
sub-057,269,3,FALSE,left,approach,pos,cake35_crop.jpg,4,27,TRUE,268,57,DON'T EAT                                    EAT,3294.568,3274.4014,3190.7656,2,3295.242,right,2,right,right,eat,eat,approach,pos,approach-pos,1,1,674
sub-057,270,3,TRUE,left,avoid,pos,meat26_crop.jpg,4,27,TRUE,269,57,DON'T EAT                                    EAT,3296.5864,3274.4014,3190.7656,2,3297.1226,right,2,right,right,eat,eat,approach,pos,approach-pos,0,0,536.1999999997206
sub-057,271,2,TRUE,left,approach,pos,cake4_crop.jpg,4,28,TRUE,270,57,DON'T EAT                                    EAT,3316.5864,3312.5664,3190.7656,2,3318.1726,right,2,right,right,eat,eat,avoid,neg,avoid-neg,1,1,1586.1999999997206
sub-057,272,2,FALSE,left,avoid,neg,fungus23_crop.jpg,4,28,TRUE,271,57,DON'T EAT                                    EAT,3318.6042,3312.5664,3190.7656,1,3319.5107,right,1,left,left,not_eat,not_eat,avoid,neg,avoid-neg,1,1,906.4999999995343
sub-057,273,2,FALSE,left,avoid,neg,fungus12_crop.jpg,4,28,TRUE,272,57,DON'T EAT                                    EAT,3320.623,3312.5664,3190.7656,1,3321.4507,right,1,left,left,not_eat,not_eat,avoid,neg,avoid-neg,1,1,827.6999999997206
sub-057,274,2,FALSE,left,avoid,neg,fungus39_crop.jpg,4,28,TRUE,273,57,DON'T EAT                                    EAT,3322.6414,3312.5664,3190.7656,1,3323.3232,right,1,left,left,not_eat,not_eat,avoid,neg,avoid-neg,1,1,681.7999999998137
sub-057,275,2,FALSE,left,avoid,neg,fungus32_crop.jpg,4,28,TRUE,274,57,DON'T EAT                                    EAT,3324.66,3312.5664,3190.7656,1,3325.363,right,1,left,left,not_eat,not_eat,avoid,neg,avoid-neg,1,1,703
sub-057,276,2,FALSE,left,avoid,neg,fungus14_crop.jpg,4,28,TRUE,275,57,DON'T EAT                                    EAT,3326.6782,3312.5664,3190.7656,1,3327.3887,right,1,left,left,not_eat,not_eat,avoid,neg,avoid-neg,1,1,710.5000000004657
sub-057,277,2,FALSE,left,avoid,neg,fungus9_crop.jpg,4,28,TRUE,276,57,DON'T EAT                                    EAT,3328.696,3312.5664,3190.7656,1,3329.3948,right,1,left,left,not_eat,not_eat,avoid,neg,avoid-neg,1,1,698.7999999998137
sub-057,278,2,FALSE,left,avoid,neg,fungus25_crop.jpg,4,28,TRUE,277,57,DON'T EAT                                    EAT,3330.7148,3312.5664,3190.7656,1,3331.7192,right,1,left,left,not_eat,not_eat,avoid,neg,avoid-neg,1,1,1004.3999999999069
sub-057,279,2,TRUE,left,approach,neg,insect18_crop.jpg,4,28,TRUE,278,57,DON'T EAT                                    EAT,3332.7332,3312.5664,3190.7656,1,3333.3296,right,1,left,left,not_eat,not_eat,avoid,neg,avoid-neg,0,0,596.3999999999069
sub-057,280,2,FALSE,left,avoid,neg,fungus15_crop.jpg,4,28,TRUE,279,57,DON'T EAT                                    EAT,3334.7512,3312.5664,3190.7656,1,3335.3596,right,1,left,left,not_eat,not_eat,avoid,neg,avoid-neg,1,1,608.3999999994412
sub-057,281,0,FALSE,left,avoid,pos,meat23_crop.jpg,4,29,TRUE,280,57,DON'T EAT                                    EAT,3352.0322,3348.0122,3190.7656,1,3352.9246,right,1,left,left,not_eat,not_eat,avoid,pos,avoid-pos,1,1,892.3999999994412
sub-057,282,0,FALSE,left,avoid,pos,meat4_crop.jpg,4,29,TRUE,281,57,DON'T EAT                                    EAT,3354.051,3348.0122,3190.7656,1,3354.8367,right,1,left,left,not_eat,not_eat,avoid,pos,avoid-pos,1,1,785.6999999997206
sub-057,283,0,FALSE,left,avoid,pos,meat1_crop.jpg,4,29,TRUE,282,57,DON'T EAT                                    EAT,3356.069,3348.0122,3190.7656,1,3356.941,right,1,left,left,not_eat,not_eat,avoid,pos,avoid-pos,1,1,872
sub-057,284,0,FALSE,left,avoid,pos,meat15_crop.jpg,4,29,TRUE,283,57,DON'T EAT                                    EAT,3358.0876,3348.0122,3190.7656,1,3358.9019,right,1,left,left,not_eat,not_eat,avoid,pos,avoid-pos,1,1,814.3000000002794
sub-057,285,0,TRUE,left,approach,pos,cake16_crop.jpg,4,29,TRUE,284,57,DON'T EAT                                    EAT,3360.106,3348.0122,3190.7656,2,3360.9126,right,2,right,right,eat,eat,avoid,pos,avoid-pos,1,1,806.6000000000931
sub-057,286,0,FALSE,left,avoid,pos,meat10_crop.jpg,4,29,TRUE,285,57,DON'T EAT                                    EAT,3362.1243,3348.0122,3190.7656,1,3362.814,right,1,left,left,not_eat,not_eat,avoid,pos,avoid-pos,1,1,689.7000000001863
sub-057,287,0,FALSE,left,avoid,pos,meat25_crop.jpg,4,29,TRUE,286,57,DON'T EAT                                    EAT,3364.1426,3348.0122,3190.7656,1,3364.8555,right,1,left,left,not_eat,not_eat,avoid,pos,avoid-pos,1,1,712.8999999999069
sub-057,288,0,TRUE,left,approach,neg,insect10_crop.jpg,4,29,TRUE,287,57,DON'T EAT                                    EAT,3366.161,3348.0122,3190.7656,2,3366.8726,right,2,right,right,eat,eat,avoid,pos,avoid-pos,1,1,711.6000000000931
sub-057,289,0,FALSE,left,avoid,pos,meat2_crop.jpg,4,29,TRUE,288,57,DON'T EAT                                    EAT,3368.179,3348.0122,3190.7656,1,3368.775,right,1,left,left,not_eat,not_eat,avoid,pos,avoid-pos,1,1,596
sub-057,290,0,FALSE,left,avoid,pos,meat31_crop.jpg,4,29,TRUE,289,57,DON'T EAT                                    EAT,3370.1973,3348.0122,3190.7656,1,3370.858,right,1,left,left,not_eat,not_eat,avoid,pos,avoid-pos,1,1,660.7000000001863
sub-057,291,0,FALSE,right,approach,pos,cake31_crop.jpg,4,30,TRUE,290,57,DON'T EAT                                    EAT,3388.0293,3384.009,3190.7656,2,3389.0515,right,2,right,right,eat,eat,approach,pos,approach-pos,1,1,1022.1999999997206
sub-057,292,0,FALSE,right,approach,pos,cake33_crop.jpg,4,30,TRUE,291,57,DON'T EAT                                    EAT,3390.0474,3384.009,3190.7656,2,3390.623,right,2,right,right,eat,eat,approach,pos,approach-pos,1,1,575.6000000000931
sub-057,293,0,FALSE,right,approach,pos,cake23_crop.jpg,4,30,TRUE,292,57,DON'T EAT                                    EAT,3392.0657,3384.009,3190.7656,2,3392.7153,right,2,right,right,eat,eat,approach,pos,approach-pos,1,1,649.5999999996275
sub-057,294,0,FALSE,right,approach,pos,cake18_crop.jpg,4,30,TRUE,293,57,DON'T EAT                                    EAT,3394.084,3384.009,3190.7656,2,3394.9216,right,2,right,right,eat,eat,approach,pos,approach-pos,1,1,837.6000000000931
sub-057,295,0,TRUE,right,avoid,pos,meat15_crop.jpg,4,30,TRUE,294,57,DON'T EAT                                    EAT,3396.1023,3384.009,3190.7656,1,3396.848,right,1,left,left,not_eat,not_eat,approach,pos,approach-pos,1,1,745.7000000001863
sub-057,296,0,TRUE,right,avoid,neg,fungus26_crop.jpg,4,30,TRUE,295,57,DON'T EAT                                    EAT,3398.1208,3384.009,3190.7656,1,3399.1318,right,1,left,left,not_eat,not_eat,approach,pos,approach-pos,1,1,1011
sub-057,297,0,FALSE,right,approach,pos,cake11_crop.jpg,4,30,TRUE,296,57,DON'T EAT                                    EAT,3400.1392,3384.009,3190.7656,2,3400.904,right,2,right,right,eat,eat,approach,pos,approach-pos,1,1,764.7999999998137
sub-057,298,0,FALSE,right,approach,pos,cake35_crop.jpg,4,30,TRUE,297,57,DON'T EAT                                    EAT,3402.1575,3384.009,3190.7656,2,3402.9226,right,2,right,right,eat,eat,approach,pos,approach-pos,1,1,765.1000000000931
sub-057,299,0,FALSE,right,approach,pos,cake39_crop.jpg,4,30,TRUE,298,57,DON'T EAT                                    EAT,3404.1758,3384.009,3190.7656,2,3404.951,right,2,right,right,eat,eat,approach,pos,approach-pos,1,1,775.2000000001863
sub-057,300,0,FALSE,right,approach,pos,cake19_crop.jpg,4,30,TRUE,299,57,DON'T EAT                                    EAT,3406.1936,3384.009,3190.7656,2,3406.7551,right,2,right,right,eat,eat,approach,pos,approach-pos,1,1,561.4999999995343
sub-057,301,3,FALSE,right,avoid,pos,meat30_crop.jpg,4,31,TRUE,300,57,DON'T EAT                                    EAT,3423.5085,3419.4885,3190.7656,1,3424.4834,right,1,left,left,not_eat,not_eat,avoid,pos,avoid-pos,1,1,974.8999999999069
sub-057,302,3,FALSE,right,avoid,pos,meat38_crop.jpg,4,31,TRUE,301,57,DON'T EAT                                    EAT,3425.5269,3419.4885,3190.7656,1,3426.283,right,1,left,left,not_eat,not_eat,avoid,pos,avoid-pos,1,1,756.1000000000931
sub-057,303,3,FALSE,right,avoid,pos,meat2_crop.jpg,4,31,TRUE,302,57,DON'T EAT                                    EAT,3427.5454,3419.4885,3190.7656,1,3428.404,right,1,left,left,not_eat,not_eat,avoid,pos,avoid-pos,1,1,858.6000000000931
sub-057,304,3,TRUE,right,approach,neg,insect6_crop.jpg,4,31,TRUE,303,57,DON'T EAT                                    EAT,3429.5632,3419.4885,3190.7656,2,3430.412,right,2,right,right,eat,eat,avoid,pos,avoid-pos,1,1,848.7999999998137
sub-057,305,3,TRUE,right,approach,pos,cake3_crop.jpg,4,31,TRUE,304,57,DON'T EAT                                    EAT,3431.582,3419.4885,3190.7656,2,3432.378,right,2,right,right,eat,eat,avoid,pos,avoid-pos,1,1,796
sub-057,306,3,FALSE,right,avoid,pos,meat40_crop.jpg,4,31,TRUE,305,57,DON'T EAT                                    EAT,3433.6003,3419.4885,3190.7656,1,3434.427,right,1,left,left,not_eat,not_eat,avoid,pos,avoid-pos,1,1,826.6999999997206
sub-057,307,3,FALSE,right,avoid,pos,meat19_crop.jpg,4,31,TRUE,306,57,DON'T EAT                                    EAT,3435.6184,3419.4885,3190.7656,1,3436.4468,right,1,left,left,not_eat,not_eat,avoid,pos,avoid-pos,1,1,828.4000000003725
sub-057,308,3,FALSE,right,avoid,pos,meat21_crop.jpg,4,31,TRUE,307,57,DON'T EAT                                    EAT,3437.637,3419.4885,3190.7656,1,3438.3918,right,1,left,left,not_eat,not_eat,avoid,pos,avoid-pos,1,1,754.7999999998137
sub-057,309,3,FALSE,right,avoid,pos,meat24_crop.jpg,4,31,TRUE,308,57,DON'T EAT                                    EAT,3439.6553,3419.4885,3190.7656,1,3440.3281,right,1,left,left,not_eat,not_eat,avoid,pos,avoid-pos,1,1,672.8000000002794
sub-057,310,3,FALSE,right,avoid,pos,meat20_crop.jpg,4,31,TRUE,309,57,DON'T EAT                                    EAT,3441.6733,3419.4885,3190.7656,1,3442.3972,right,1,left,left,not_eat,not_eat,avoid,pos,avoid-pos,1,1,723.8999999999069
sub-057,311,2,FALSE,left,avoid,pos,meat13_crop.jpg,4,32,TRUE,310,57,DON'T EAT                                    EAT,3460.3723,3456.3523,3190.7656,1,3461.87,right,1,left,left,not_eat,not_eat,avoid,pos,avoid-pos,1,1,1497.7000000001863
sub-057,312,2,FALSE,left,avoid,pos,meat30_crop.jpg,4,32,TRUE,311,57,DON'T EAT                                    EAT,3462.3909,3456.3523,3190.7656,1,3463.0825,right,1,left,left,not_eat,not_eat,avoid,pos,avoid-pos,1,1,691.6000000000931
sub-057,313,2,FALSE,left,avoid,pos,meat29_crop.jpg,4,32,TRUE,312,57,DON'T EAT                                    EAT,3464.4092,3456.3523,3190.7656,1,3464.976,right,1,left,left,not_eat,not_eat,avoid,pos,avoid-pos,1,1,566.7999999998137
sub-057,314,2,TRUE,left,approach,pos,cake7_crop.jpg,4,32,TRUE,313,57,DON'T EAT                                    EAT,3466.4277,3456.3523,3190.7656,2,3467.3044,right,2,right,right,eat,eat,avoid,pos,avoid-pos,1,1,876.6999999997206
sub-057,315,2,FALSE,left,avoid,pos,meat34_crop.jpg,4,32,TRUE,314,57,DON'T EAT                                    EAT,3468.4458,3456.3523,3190.7656,1,3469.4653,right,1,left,left,not_eat,not_eat,avoid,pos,avoid-pos,1,1,1019.5
sub-057,316,2,FALSE,left,avoid,pos,meat3_crop.jpg,4,32,TRUE,315,57,DON'T EAT                                    EAT,3470.464,3456.3523,3190.7656,1,3471.3755,right,1,left,left,not_eat,not_eat,avoid,pos,avoid-pos,1,1,911.5
sub-057,317,2,TRUE,left,approach,neg,insect37_crop.jpg,4,32,TRUE,316,57,DON'T EAT                                    EAT,3472.4824,3456.3523,3190.7656,2,3473.4246,right,2,right,right,eat,eat,avoid,pos,avoid-pos,1,1,942.1999999997206
sub-057,318,2,FALSE,left,avoid,pos,meat40_crop.jpg,4,32,TRUE,317,57,DON'T EAT                                    EAT,3474.501,3456.3523,3190.7656,1,3475.2246,right,1,left,left,not_eat,not_eat,avoid,pos,avoid-pos,1,1,723.6000000000931
sub-057,319,2,FALSE,left,avoid,pos,meat28_crop.jpg,4,32,TRUE,318,57,DON'T EAT                                    EAT,3476.5193,3456.3523,3190.7656,1,3477.2017,right,1,left,left,not_eat,not_eat,avoid,pos,avoid-pos,1,1,682.4000000003725
sub-057,320,2,FALSE,left,avoid,pos,meat9_crop.jpg,4,32,TRUE,319,57,DON'T EAT                                    EAT,3478.5376,3456.3523,3190.7656,1,3479.4116,right,1,left,left,not_eat,not_eat,avoid,pos,avoid-pos,1,1,874
