TrialNumber,n_block,catch,hand,mot,val,stim_name,run_number,num_block,ran,order,response,RT,Subject number,n_b,left_side_resp_label,trial_onset,blk_instr_onset,baseline_onset
1,1,False,left,approach,neg,insect15_crop.jpg,1,1,1.0,0.0,1,1929.958,110.0,1.0,EAT                                    DON'T EAT,1929.0177,1924.9977,1911.2314
2,1,False,left,approach,neg,insect3_crop.jpg,1,1,1.0,1.0,1,1931.6493,110.0,1.0,EAT                                    DON'T EAT,1931.036,1924.9977,1911.2314
3,1,False,left,approach,neg,insect28_crop.jpg,1,1,1.0,2.0,1,1933.6414,110.0,1.0,EAT                                    DON'T EAT,1933.0544,1924.9977,1911.2314
4,1,True,left,avoid,neg,fungus21_crop.jpg,1,1,1.0,3.0,2,1936.1589,110.0,1.0,EAT                                    DON'T EAT,1935.0756,1924.9977,1911.2314
5,1,False,left,approach,neg,insect21_crop.jpg,1,1,1.0,4.0,1,1937.8008,110.0,1.0,EAT                                    DON'T EAT,1937.0925,1924.9977,1911.2314
6,1,False,left,approach,neg,insect35_crop.jpg,1,1,1.0,5.0,1,1939.7122,110.0,1.0,EAT                                    DON'T EAT,1939.109,1924.9977,1911.2314
7,1,False,left,approach,neg,insect20_crop.jpg,1,1,1.0,6.0,1,1941.6464,110.0,1.0,EAT                                    DON'T EAT,1941.1278,1924.9977,1911.2314
8,1,False,left,approach,neg,insect19_crop.jpg,1,1,1.0,7.0,1,1943.662,110.0,1.0,EAT                                    DON'T EAT,1943.1454,1924.9977,1911.2314
9,1,True,left,avoid,pos,meat10_crop.jpg,1,1,1.0,8.0,2,1946.096,110.0,1.0,EAT                                    DON'T EAT,1945.1644,1924.9977,1911.2314
10,1,False,left,approach,neg,insect1_crop.jpg,1,1,1.0,9.0,1,1947.7865,110.0,1.0,EAT                                    DON'T EAT,1947.1827,1924.9977,1911.2314
11,1,False,left,avoid,pos,meat18_crop.jpg,1,2,1.0,10.0,2,1966.7279,110.0,2.0,EAT                                    DON'T EAT,1965.6814,1961.6611,1911.2314
12,1,False,left,avoid,pos,meat34_crop.jpg,1,2,1.0,11.0,2,1968.6082,110.0,2.0,EAT                                    DON'T EAT,1967.7,1961.6611,1911.2314
13,1,False,left,avoid,pos,meat7_crop.jpg,1,2,1.0,12.0,2,1970.3511,110.0,2.0,EAT                                    DON'T EAT,1969.718,1961.6611,1911.2314
14,1,True,left,approach,neg,insect5_crop.jpg,1,2,1.0,13.0,1,1972.4884,110.0,2.0,EAT                                    DON'T EAT,1971.7363,1961.6611,1911.2314
15,1,False,left,avoid,pos,meat31_crop.jpg,1,2,1.0,14.0,2,1974.5193,110.0,2.0,EAT                                    DON'T EAT,1973.7549,1961.6611,1911.2314
16,1,False,left,avoid,pos,meat38_crop.jpg,1,2,1.0,15.0,2,1976.3761,110.0,2.0,EAT                                    DON'T EAT,1975.773,1961.6611,1911.2314
17,1,True,left,approach,pos,cake4_crop.jpg,1,2,1.0,16.0,1,1978.7416,110.0,2.0,EAT                                    DON'T EAT,1977.7914,1961.6611,1911.2314
18,1,False,left,avoid,pos,meat39_crop.jpg,1,2,1.0,17.0,2,1980.5585,110.0,2.0,EAT                                    DON'T EAT,1979.8098,1961.6611,1911.2314
19,1,False,left,avoid,pos,meat13_crop.jpg,1,2,1.0,18.0,2,1982.4724,110.0,2.0,EAT                                    DON'T EAT,1981.8281,1961.6611,1911.2314
20,1,False,left,avoid,pos,meat17_crop.jpg,1,2,1.0,19.0,2,1984.6195,110.0,2.0,EAT                                    DON'T EAT,1983.8463,1961.6611,1911.2314
21,1,False,right,approach,pos,cake1_crop.jpg,1,3,1.0,20.0,1,2003.5977,110.0,3.0,EAT                                    DON'T EAT,2002.7122,1998.6919,1911.2314
22,1,False,right,approach,pos,cake11_crop.jpg,1,3,1.0,21.0,1,2005.3776,110.0,3.0,EAT                                    DON'T EAT,2004.7305,1998.6919,1911.2314
23,1,True,right,avoid,pos,meat38_crop.jpg,1,3,1.0,22.0,2,2007.4894,110.0,3.0,EAT                                    DON'T EAT,2006.7488,1998.6919,1911.2314
24,1,False,right,approach,pos,cake13_crop.jpg,1,3,1.0,23.0,1,2009.3799,110.0,3.0,EAT                                    DON'T EAT,2008.7672,1998.6919,1911.2314
25,1,True,right,avoid,neg,fungus12_crop.jpg,1,3,1.0,24.0,2,2012.151,110.0,3.0,EAT                                    DON'T EAT,2010.7855,1998.6919,1911.2314
26,1,False,right,approach,pos,cake17_crop.jpg,1,3,1.0,25.0,1,2013.4286,110.0,3.0,EAT                                    DON'T EAT,2012.8038,1998.6919,1911.2314
27,1,False,right,approach,pos,cake5_crop.jpg,1,3,1.0,26.0,1,2015.3607,110.0,3.0,EAT                                    DON'T EAT,2014.8223,1998.6919,1911.2314
28,1,False,right,approach,pos,cake16_crop.jpg,1,3,1.0,27.0,1,2017.4944,110.0,3.0,EAT                                    DON'T EAT,2016.8402,1998.6919,1911.2314
29,1,False,right,approach,pos,cake30_crop.jpg,1,3,1.0,28.0,1,2019.449,110.0,3.0,EAT                                    DON'T EAT,2018.8588,1998.6919,1911.2314
30,1,False,right,approach,pos,cake9_crop.jpg,1,3,1.0,29.0,1,2021.4781,110.0,3.0,EAT                                    DON'T EAT,2020.8772,1998.6919,1911.2314
31,2,True,right,approach,neg,insect11_crop.jpg,1,4,1.0,30.0,1,2039.7267,110.0,4.0,EAT                                    DON'T EAT,2039.059,2035.0386,1911.2314
32,2,False,right,avoid,neg,fungus33_crop.jpg,1,4,1.0,31.0,2,2041.9113,110.0,4.0,EAT                                    DON'T EAT,2041.0771,2035.0386,1911.2314
33,2,False,right,avoid,neg,fungus16_crop.jpg,1,4,1.0,32.0,2,2043.8757,110.0,4.0,EAT                                    DON'T EAT,2043.0956,2035.0386,1911.2314
34,2,False,right,avoid,neg,fungus40_crop.jpg,1,4,1.0,33.0,2,2045.7894,110.0,4.0,EAT                                    DON'T EAT,2045.114,2035.0386,1911.2314
35,2,False,right,avoid,neg,fungus38_crop.jpg,1,4,1.0,34.0,2,2047.8721,110.0,4.0,EAT                                    DON'T EAT,2047.1323,2035.0386,1911.2314
36,2,False,right,avoid,neg,fungus17_crop.jpg,1,4,1.0,35.0,2,2049.9104,110.0,4.0,EAT                                    DON'T EAT,2049.1506,2035.0386,1911.2314
37,2,False,right,avoid,neg,fungus20_crop.jpg,1,4,1.0,36.0,2,2051.8994,110.0,4.0,EAT                                    DON'T EAT,2051.169,2035.0386,1911.2314
38,2,False,right,avoid,neg,fungus1_crop.jpg,1,4,1.0,37.0,2,2053.7656,110.0,4.0,EAT                                    DON'T EAT,2053.187,2035.0386,1911.2314
39,2,True,right,approach,pos,cake29_crop.jpg,1,4,1.0,38.0,1,2055.9055,110.0,4.0,EAT                                    DON'T EAT,2055.2056,2035.0386,1911.2314
40,2,False,right,avoid,neg,fungus5_crop.jpg,1,4,1.0,39.0,2,2058.0447,110.0,4.0,EAT                                    DON'T EAT,2057.2239,2035.0386,1911.2314
41,0,False,left,avoid,pos,meat23_crop.jpg,1,5,1.0,40.0,2,2077.8599,110.0,5.0,EAT                                    DON'T EAT,2076.9736,2072.9539,1911.2314
42,0,False,left,avoid,pos,meat2_crop.jpg,1,5,1.0,41.0,2,2079.5852,110.0,5.0,EAT                                    DON'T EAT,2078.992,2072.9539,1911.2314
43,0,False,left,avoid,pos,meat25_crop.jpg,1,5,1.0,42.0,2,2081.6672,110.0,5.0,EAT                                    DON'T EAT,2081.0105,2072.9539,1911.2314
44,0,False,left,avoid,pos,meat14_crop.jpg,1,5,1.0,43.0,2,2083.5261,110.0,5.0,EAT                                    DON'T EAT,2083.0288,2072.9539,1911.2314
45,0,False,left,avoid,pos,meat33_crop.jpg,1,5,1.0,44.0,2,2085.6392,110.0,5.0,EAT                                    DON'T EAT,2085.047,2072.9539,1911.2314
46,0,False,left,avoid,pos,meat4_crop.jpg,1,5,1.0,45.0,2,2087.8496,110.0,5.0,EAT                                    DON'T EAT,2087.0654,2072.9539,1911.2314
47,0,True,left,approach,neg,insect17_crop.jpg,1,5,1.0,46.0,1,2089.75,110.0,5.0,EAT                                    DON'T EAT,2089.0837,2072.9539,1911.2314
48,0,True,left,approach,pos,cake34_crop.jpg,1,5,1.0,47.0,2,2091.7046,110.0,5.0,EAT                                    DON'T EAT,2091.102,2072.9539,1911.2314
49,0,False,left,avoid,pos,meat37_crop.jpg,1,5,1.0,48.0,2,2094.0298,110.0,5.0,EAT                                    DON'T EAT,2093.1206,2072.9539,1911.2314
50,0,False,left,avoid,pos,meat21_crop.jpg,1,5,1.0,49.0,2,2096.016,110.0,5.0,EAT                                    DON'T EAT,2095.1387,2072.9539,1911.2314
51,2,False,right,approach,neg,insect1_crop.jpg,1,6,1.0,50.0,1,2111.969,110.0,6.0,EAT                                    DON'T EAT,2111.2188,2107.1987,1911.2314
52,2,False,right,approach,neg,insect30_crop.jpg,1,6,1.0,51.0,1,2113.8699,110.0,6.0,EAT                                    DON'T EAT,2113.237,2107.1987,1911.2314
53,2,False,right,approach,neg,insect29_crop.jpg,1,6,1.0,52.0,1,2115.9106,110.0,6.0,EAT                                    DON'T EAT,2115.2554,2107.1987,1911.2314
54,2,False,right,approach,neg,insect9_crop.jpg,1,6,1.0,53.0,1,2117.8013,110.0,6.0,EAT                                    DON'T EAT,2117.2737,2107.1987,1911.2314
55,2,False,right,approach,neg,insect34_crop.jpg,1,6,1.0,54.0,1,2119.7363,110.0,6.0,EAT                                    DON'T EAT,2119.292,2107.1987,1911.2314
56,2,True,right,avoid,pos,meat19_crop.jpg,1,6,1.0,55.0,2,2122.0837,110.0,6.0,EAT                                    DON'T EAT,2121.3105,2107.1987,1911.2314
57,2,False,right,approach,neg,insect17_crop.jpg,1,6,1.0,56.0,1,2123.9104,110.0,6.0,EAT                                    DON'T EAT,2123.3289,2107.1987,1911.2314
58,2,False,right,approach,neg,insect10_crop.jpg,1,6,1.0,57.0,1,2125.9287,110.0,6.0,EAT                                    DON'T EAT,2125.3472,2107.1987,1911.2314
59,2,False,right,approach,neg,insect40_crop.jpg,1,6,1.0,58.0,1,2128.0732,110.0,6.0,EAT                                    DON'T EAT,2127.3655,2107.1987,1911.2314
60,2,True,right,avoid,neg,fungus30_crop.jpg,1,6,1.0,59.0,2,2130.236,110.0,6.0,EAT                                    DON'T EAT,2129.3838,2107.1987,1911.2314
61,2,False,left,approach,pos,cake21_crop.jpg,1,7,1.0,60.0,1,2146.7537,110.0,7.0,EAT                                    DON'T EAT,2145.8809,2141.8608,1911.2314
62,2,False,left,approach,pos,cake23_crop.jpg,1,7,1.0,61.0,1,2148.4587,110.0,7.0,EAT                                    DON'T EAT,2147.899,2141.8608,1911.2314
63,2,False,left,approach,pos,cake1_crop.jpg,1,7,1.0,62.0,1,2150.455,110.0,7.0,EAT                                    DON'T EAT,2149.9175,2141.8608,1911.2314
64,2,False,left,approach,pos,cake10_crop.jpg,1,7,1.0,63.0,1,2152.8767,110.0,7.0,EAT                                    DON'T EAT,2151.9358,2141.8608,1911.2314
65,2,False,left,approach,pos,cake27_crop.jpg,1,7,1.0,64.0,1,2154.5898,110.0,7.0,EAT                                    DON'T EAT,2153.9543,2141.8608,1911.2314
66,2,True,left,avoid,pos,meat27_crop.jpg,1,7,1.0,65.0,2,2156.7305,110.0,7.0,EAT                                    DON'T EAT,2155.9727,2141.8608,1911.2314
67,2,False,left,approach,pos,cake12_crop.jpg,1,7,1.0,66.0,1,2158.7493,110.0,7.0,EAT                                    DON'T EAT,2157.9907,2141.8608,1911.2314
68,2,False,left,approach,pos,cake24_crop.jpg,1,7,1.0,67.0,1,2160.7368,110.0,7.0,EAT                                    DON'T EAT,2160.009,2141.8608,1911.2314
69,2,True,left,avoid,neg,fungus20_crop.jpg,1,7,1.0,68.0,2,2163.0325,110.0,7.0,EAT                                    DON'T EAT,2162.0276,2141.8608,1911.2314
70,2,False,left,approach,pos,cake37_crop.jpg,1,7,1.0,69.0,1,2164.7385,110.0,7.0,EAT                                    DON'T EAT,2164.046,2141.8608,1911.2314
71,3,False,right,avoid,pos,meat4_crop.jpg,1,8,1.0,70.0,2,2183.7139,110.0,8.0,EAT                                    DON'T EAT,2182.7449,2178.7249,1911.2314
72,3,False,right,avoid,pos,meat32_crop.jpg,1,8,1.0,71.0,2,2185.3438,110.0,8.0,EAT                                    DON'T EAT,2184.7632,2178.7249,1911.2314
73,3,False,right,avoid,pos,meat10_crop.jpg,1,8,1.0,72.0,2,2187.3655,110.0,8.0,EAT                                    DON'T EAT,2186.7815,2178.7249,1911.2314
74,3,True,right,approach,neg,insect2_crop.jpg,1,8,1.0,73.0,1,2189.4678,110.0,8.0,EAT                                    DON'T EAT,2188.7996,2178.7249,1911.2314
75,3,False,right,avoid,pos,meat34_crop.jpg,1,8,1.0,74.0,2,2191.5342,110.0,8.0,EAT                                    DON'T EAT,2190.818,2178.7249,1911.2314
76,3,False,right,avoid,pos,meat33_crop.jpg,1,8,1.0,75.0,2,2193.535,110.0,8.0,EAT                                    DON'T EAT,2192.8362,2178.7249,1911.2314
77,3,True,right,approach,pos,cake20_crop.jpg,1,8,1.0,76.0,1,2195.5823,110.0,8.0,EAT                                    DON'T EAT,2194.855,2178.7249,1911.2314
78,3,False,right,avoid,pos,meat13_crop.jpg,1,8,1.0,77.0,2,2197.5894,110.0,8.0,EAT                                    DON'T EAT,2196.8733,2178.7249,1911.2314
79,3,False,right,avoid,pos,meat30_crop.jpg,1,8,1.0,78.0,2,2199.675,110.0,8.0,EAT                                    DON'T EAT,2198.8916,2178.7249,1911.2314
80,3,False,right,avoid,pos,meat39_crop.jpg,1,8,1.0,79.0,2,2201.7236,110.0,8.0,EAT                                    DON'T EAT,2200.91,2178.7249,1911.2314
81,2,True,left,approach,pos,cake9_crop.jpg,2,9,1.0,80.0,1,2313.4412,110.0,9.0,EAT                                    DON'T EAT,2312.2021,2308.1821,2295.8
82,2,False,left,avoid,neg,fungus24_crop.jpg,2,9,1.0,81.0,2,2315.6882,110.0,9.0,EAT                                    DON'T EAT,2314.2205,2308.1821,2295.8
83,2,False,left,avoid,neg,fungus6_crop.jpg,2,9,1.0,82.0,2,2317.385,110.0,9.0,EAT                                    DON'T EAT,2316.2385,2308.1821,2295.8
84,2,False,left,avoid,neg,fungus12_crop.jpg,2,9,1.0,83.0,2,2319.1785,110.0,9.0,EAT                                    DON'T EAT,2318.257,2308.1821,2295.8
85,2,False,left,avoid,neg,fungus1_crop.jpg,2,9,1.0,84.0,2,2320.972,110.0,9.0,EAT                                    DON'T EAT,2320.2754,2308.1821,2295.8
86,2,False,left,avoid,neg,fungus37_crop.jpg,2,9,1.0,85.0,2,2323.1604,110.0,9.0,EAT                                    DON'T EAT,2322.294,2308.1821,2295.8
87,2,False,left,avoid,neg,fungus18_crop.jpg,2,9,1.0,86.0,2,2324.9375,110.0,9.0,EAT                                    DON'T EAT,2324.3125,2308.1821,2295.8
88,2,False,left,avoid,neg,fungus38_crop.jpg,2,9,1.0,87.0,2,2326.9412,110.0,9.0,EAT                                    DON'T EAT,2326.33,2308.1821,2295.8
89,2,False,left,avoid,neg,fungus30_crop.jpg,2,9,1.0,88.0,2,2329.0344,110.0,9.0,EAT                                    DON'T EAT,2328.3489,2308.1821,2295.8
90,2,True,left,approach,neg,insect31_crop.jpg,2,9,1.0,89.0,1,2331.1501,110.0,9.0,EAT                                    DON'T EAT,2330.3672,2308.1821,2295.8
91,2,False,right,approach,pos,cake19_crop.jpg,2,10,1.0,90.0,1,2350.151,110.0,10.0,EAT                                    DON'T EAT,2349.3162,2345.2961,2295.8
92,2,False,right,approach,pos,cake22_crop.jpg,2,10,1.0,91.0,1,2351.9153,110.0,10.0,EAT                                    DON'T EAT,2351.3345,2345.2961,2295.8
93,2,False,right,approach,pos,cake28_crop.jpg,2,10,1.0,92.0,1,2354.0493,110.0,10.0,EAT                                    DON'T EAT,2353.353,2345.2961,2295.8
94,2,False,right,approach,pos,cake40_crop.jpg,2,10,1.0,93.0,1,2355.9856,110.0,10.0,EAT                                    DON'T EAT,2355.3713,2345.2961,2295.8
95,2,False,right,approach,pos,cake10_crop.jpg,2,10,1.0,94.0,1,2357.93,110.0,10.0,EAT                                    DON'T EAT,2357.3896,2345.2961,2295.8
96,2,False,right,approach,pos,cake26_crop.jpg,2,10,1.0,95.0,1,2359.916,110.0,10.0,EAT                                    DON'T EAT,2359.408,2345.2961,2295.8
97,2,False,right,approach,pos,cake37_crop.jpg,2,10,1.0,96.0,1,2361.8892,110.0,10.0,EAT                                    DON'T EAT,2361.426,2345.2961,2295.8
98,2,False,right,approach,pos,cake33_crop.jpg,2,10,1.0,97.0,1,2364.0884,110.0,10.0,EAT                                    DON'T EAT,2363.4448,2345.2961,2295.8
99,2,True,right,avoid,pos,meat20_crop.jpg,2,10,1.0,98.0,2,2366.1611,110.0,10.0,EAT                                    DON'T EAT,2365.4634,2345.2961,2295.8
100,2,True,right,avoid,neg,fungus13_crop.jpg,2,10,1.0,99.0,2,2368.3672,110.0,10.0,EAT                                    DON'T EAT,2367.481,2345.2961,2295.8
101,0,False,left,avoid,neg,fungus17_crop.jpg,2,11,1.0,100.0,2,2388.182,110.0,11.0,EAT                                    DON'T EAT,2387.348,2383.3276,2295.8
102,0,True,left,approach,neg,insect36_crop.jpg,2,11,1.0,101.0,1,2390.3186,110.0,11.0,EAT                                    DON'T EAT,2389.3662,2383.3276,2295.8
103,0,False,left,avoid,neg,fungus15_crop.jpg,2,11,1.0,102.0,2,2392.1018,110.0,11.0,EAT                                    DON'T EAT,2391.3845,2383.3276,2295.8
104,0,False,left,avoid,neg,fungus27_crop.jpg,2,11,1.0,103.0,2,2393.9714,110.0,11.0,EAT                                    DON'T EAT,2393.4023,2383.3276,2295.8
105,0,True,left,approach,pos,cake33_crop.jpg,2,11,1.0,104.0,1,2396.1387,110.0,11.0,EAT                                    DON'T EAT,2395.4214,2383.3276,2295.8
106,0,False,left,avoid,neg,fungus22_crop.jpg,2,11,1.0,105.0,2,2398.0845,110.0,11.0,EAT                                    DON'T EAT,2397.4392,2383.3276,2295.8
107,0,False,left,avoid,neg,fungus31_crop.jpg,2,11,1.0,106.0,2,2400.249,110.0,11.0,EAT                                    DON'T EAT,2399.458,2383.3276,2295.8
108,0,False,left,avoid,neg,fungus10_crop.jpg,2,11,1.0,107.0,2,2402.0286,110.0,11.0,EAT                                    DON'T EAT,2401.476,2383.3276,2295.8
109,0,False,left,avoid,neg,fungus23_crop.jpg,2,11,1.0,108.0,2,2404.1392,110.0,11.0,EAT                                    DON'T EAT,2403.4946,2383.3276,2295.8
110,0,False,left,avoid,neg,fungus29_crop.jpg,2,11,1.0,109.0,2,2406.117,110.0,11.0,EAT                                    DON'T EAT,2405.513,2383.3276,2295.8
111,0,False,right,approach,neg,insect7_crop.jpg,2,12,1.0,110.0,1,2422.6663,110.0,12.0,EAT                                    DON'T EAT,2421.8933,2417.8728,2295.8
112,0,False,right,approach,neg,insect3_crop.jpg,2,12,1.0,111.0,1,2424.3997,110.0,12.0,EAT                                    DON'T EAT,2423.9114,2417.8728,2295.8
113,0,False,right,approach,neg,insect8_crop.jpg,2,12,1.0,112.0,1,2426.407,110.0,12.0,EAT                                    DON'T EAT,2425.9297,2417.8728,2295.8
114,0,False,right,approach,neg,insect12_crop.jpg,2,12,1.0,113.0,1,2428.451,110.0,12.0,EAT                                    DON'T EAT,2427.9478,2417.8728,2295.8
115,0,False,right,approach,neg,insect18_crop.jpg,2,12,1.0,114.0,1,2430.3884,110.0,12.0,EAT                                    DON'T EAT,2429.9663,2417.8728,2295.8
116,0,True,right,avoid,neg,fungus14_crop.jpg,2,12,1.0,115.0,2,2432.7651,110.0,12.0,EAT                                    DON'T EAT,2431.9846,2417.8728,2295.8
117,0,False,right,approach,neg,insect32_crop.jpg,2,12,1.0,116.0,1,2434.6406,110.0,12.0,EAT                                    DON'T EAT,2434.0027,2417.8728,2295.8
118,0,True,right,avoid,pos,meat29_crop.jpg,2,12,1.0,117.0,2,2436.706,110.0,12.0,EAT                                    DON'T EAT,2436.0215,2417.8728,2295.8
119,0,False,right,approach,neg,insect39_crop.jpg,2,12,1.0,118.0,1,2438.5884,110.0,12.0,EAT                                    DON'T EAT,2438.0396,2417.8728,2295.8
120,0,False,right,approach,neg,insect31_crop.jpg,2,12,1.0,119.0,1,2440.6074,110.0,12.0,EAT                                    DON'T EAT,2440.058,2417.8728,2295.8
121,0,False,right,avoid,neg,fungus27_crop.jpg,2,13,1.0,120.0,2,2460.1216,110.0,13.0,EAT                                    DON'T EAT,2459.3074,2455.287,2295.8
122,0,False,right,avoid,neg,fungus26_crop.jpg,2,13,1.0,121.0,2,2462.0005,110.0,13.0,EAT                                    DON'T EAT,2461.3257,2455.287,2295.8
123,0,False,right,avoid,neg,fungus9_crop.jpg,2,13,1.0,122.0,2,2463.8706,110.0,13.0,EAT                                    DON'T EAT,2463.3438,2455.287,2295.8
124,0,False,right,avoid,neg,fungus31_crop.jpg,2,13,1.0,123.0,2,2465.9988,110.0,13.0,EAT                                    DON'T EAT,2465.3625,2455.287,2295.8
125,0,False,right,avoid,neg,fungus10_crop.jpg,2,13,1.0,124.0,2,2467.878,110.0,13.0,EAT                                    DON'T EAT,2467.3809,2455.287,2295.8
126,0,True,right,approach,pos,cake2_crop.jpg,2,13,1.0,125.0,1,2470.0642,110.0,13.0,EAT                                    DON'T EAT,2469.3992,2455.287,2295.8
127,0,False,right,avoid,neg,fungus8_crop.jpg,2,13,1.0,126.0,2,2472.0698,110.0,13.0,EAT                                    DON'T EAT,2471.4172,2455.287,2295.8
128,0,False,right,avoid,neg,fungus32_crop.jpg,2,13,1.0,127.0,2,2473.9766,110.0,13.0,EAT                                    DON'T EAT,2473.4358,2455.287,2295.8
129,0,False,right,avoid,neg,fungus23_crop.jpg,2,13,1.0,128.0,2,2475.9832,110.0,13.0,EAT                                    DON'T EAT,2475.4539,2455.287,2295.8
130,0,True,right,approach,neg,insect14_crop.jpg,2,13,1.0,129.0,1,2478.1409,110.0,13.0,EAT                                    DON'T EAT,2477.4722,2455.287,2295.8
131,2,False,right,avoid,pos,meat6_crop.jpg,2,14,1.0,130.0,2,2494.938,110.0,14.0,EAT                                    DON'T EAT,2493.7192,2489.6992,2295.8
132,2,False,right,avoid,pos,meat23_crop.jpg,2,14,1.0,131.0,2,2496.471,110.0,14.0,EAT                                    DON'T EAT,2495.7378,2489.6992,2295.8
133,2,False,right,avoid,pos,meat31_crop.jpg,2,14,1.0,132.0,2,2498.2822,110.0,14.0,EAT                                    DON'T EAT,2497.7559,2489.6992,2295.8
134,2,False,right,avoid,pos,meat3_crop.jpg,2,14,1.0,133.0,2,2500.408,110.0,14.0,EAT                                    DON'T EAT,2499.7742,2489.6992,2295.8
135,2,True,right,approach,neg,insect13_crop.jpg,2,14,1.0,134.0,1,2502.4358,110.0,14.0,EAT                                    DON'T EAT,2501.7927,2489.6992,2295.8
136,2,True,right,approach,pos,cake14_crop.jpg,2,14,1.0,135.0,1,2504.362,110.0,14.0,EAT                                    DON'T EAT,2503.811,2489.6992,2295.8
137,2,False,right,avoid,pos,meat17_crop.jpg,2,14,1.0,136.0,2,2506.4868,110.0,14.0,EAT                                    DON'T EAT,2505.8293,2489.6992,2295.8
138,2,False,right,avoid,pos,meat24_crop.jpg,2,14,1.0,137.0,2,2508.4392,110.0,14.0,EAT                                    DON'T EAT,2507.8477,2489.6992,2295.8
139,2,False,right,avoid,pos,meat37_crop.jpg,2,14,1.0,138.0,2,2510.412,110.0,14.0,EAT                                    DON'T EAT,2509.866,2489.6992,2295.8
140,2,False,right,avoid,pos,meat28_crop.jpg,2,14,1.0,139.0,2,2512.3823,110.0,14.0,EAT                                    DON'T EAT,2511.8845,2489.6992,2295.8
141,0,True,right,avoid,pos,meat8_crop.jpg,2,15,1.0,140.0,2,2531.2346,110.0,15.0,EAT                                    DON'T EAT,2530.4832,2526.4626,2295.8
142,0,False,right,approach,pos,cake8_crop.jpg,2,15,1.0,141.0,1,2533.2498,110.0,15.0,EAT                                    DON'T EAT,2532.5015,2526.4626,2295.8
143,0,False,right,approach,pos,cake35_crop.jpg,2,15,1.0,142.0,1,2535.2185,110.0,15.0,EAT                                    DON'T EAT,2534.5198,2526.4626,2295.8
144,0,False,right,approach,pos,cake23_crop.jpg,2,15,1.0,143.0,1,2537.0618,110.0,15.0,EAT                                    DON'T EAT,2536.5378,2526.4626,2295.8
145,0,False,right,approach,pos,cake31_crop.jpg,2,15,1.0,144.0,1,2539.0962,110.0,15.0,EAT                                    DON'T EAT,2538.5562,2526.4626,2295.8
146,0,False,right,approach,pos,cake32_crop.jpg,2,15,1.0,145.0,1,2541.4521,110.0,15.0,EAT                                    DON'T EAT,2540.575,2526.4626,2295.8
147,0,True,right,avoid,neg,fungus39_crop.jpg,2,15,1.0,146.0,2,2543.3123,110.0,15.0,EAT                                    DON'T EAT,2542.5933,2526.4626,2295.8
148,0,False,right,approach,pos,cake39_crop.jpg,2,15,1.0,147.0,1,2545.2053,110.0,15.0,EAT                                    DON'T EAT,2544.6116,2526.4626,2295.8
149,0,False,right,approach,pos,cake7_crop.jpg,2,15,1.0,148.0,1,2547.3503,110.0,15.0,EAT                                    DON'T EAT,2546.6294,2526.4626,2295.8
150,0,False,right,approach,pos,cake6_crop.jpg,2,15,1.0,149.0,1,2549.2395,110.0,15.0,EAT                                    DON'T EAT,2548.6482,2526.4626,2295.8
151,3,False,right,avoid,neg,fungus36_crop.jpg,2,16,1.0,150.0,2,2566.2722,110.0,16.0,EAT                                    DON'T EAT,2565.5122,2561.4922,2295.8
152,3,False,right,avoid,neg,fungus18_crop.jpg,2,16,1.0,151.0,2,2568.1233,110.0,16.0,EAT                                    DON'T EAT,2567.5308,2561.4922,2295.8
153,3,False,right,avoid,neg,fungus6_crop.jpg,2,16,1.0,152.0,2,2570.0466,110.0,16.0,EAT                                    DON'T EAT,2569.5488,2561.4922,2295.8
154,3,False,right,avoid,neg,fungus3_crop.jpg,2,16,1.0,153.0,2,2572.2554,110.0,16.0,EAT                                    DON'T EAT,2571.5671,2561.4922,2295.8
155,3,True,right,approach,pos,cake34_crop.jpg,2,16,1.0,154.0,1,2574.2637,110.0,16.0,EAT                                    DON'T EAT,2573.5854,2561.4922,2295.8
156,3,False,right,avoid,neg,fungus19_crop.jpg,2,16,1.0,155.0,2,2576.1982,110.0,16.0,EAT                                    DON'T EAT,2575.604,2561.4922,2295.8
157,3,False,right,avoid,neg,fungus4_crop.jpg,2,16,1.0,156.0,2,2578.2454,110.0,16.0,EAT                                    DON'T EAT,2577.622,2561.4922,2295.8
158,3,False,right,avoid,neg,fungus37_crop.jpg,2,16,1.0,157.0,2,2580.197,110.0,16.0,EAT                                    DON'T EAT,2579.6406,2561.4922,2295.8
159,3,False,right,avoid,neg,fungus11_crop.jpg,2,16,1.0,158.0,2,2582.22,110.0,16.0,EAT                                    DON'T EAT,2581.6587,2561.4922,2295.8
160,3,True,right,approach,neg,insect36_crop.jpg,2,16,1.0,159.0,1,2584.4692,110.0,16.0,EAT                                    DON'T EAT,2583.6772,2561.4922,2295.8
161,0,False,left,approach,neg,insect33_crop.jpg,3,17,1.0,160.0,1,2676.1929,110.0,17.0,EAT                                    DON'T EAT,2675.4363,2671.4165,2659.3298
162,0,False,left,approach,neg,insect32_crop.jpg,3,17,1.0,161.0,1,2677.8933,110.0,17.0,EAT                                    DON'T EAT,2677.4546,2671.4165,2659.3298
163,0,False,left,approach,neg,insect25_crop.jpg,3,17,1.0,162.0,1,2679.9558,110.0,17.0,EAT                                    DON'T EAT,2679.473,2671.4165,2659.3298
164,0,False,left,approach,neg,insect4_crop.jpg,3,17,1.0,163.0,1,2681.9846,110.0,17.0,EAT                                    DON'T EAT,2681.4912,2671.4165,2659.3298
165,0,False,left,approach,neg,insect8_crop.jpg,3,17,1.0,164.0,1,2683.943,110.0,17.0,EAT                                    DON'T EAT,2683.5098,2671.4165,2659.3298
166,0,False,left,approach,neg,insect40_crop.jpg,3,17,1.0,165.0,1,2686.088,110.0,17.0,EAT                                    DON'T EAT,2685.5283,2671.4165,2659.3298
167,0,True,left,avoid,neg,fungus8_crop.jpg,3,17,1.0,166.0,2,2688.4766,110.0,17.0,EAT                                    DON'T EAT,2687.5466,2671.4165,2659.3298
168,0,False,left,approach,neg,insect26_crop.jpg,3,17,1.0,167.0,1,2690.178,110.0,17.0,EAT                                    DON'T EAT,2689.565,2671.4165,2659.3298
169,0,False,left,approach,neg,insect30_crop.jpg,3,17,1.0,168.0,1,2692.122,110.0,17.0,EAT                                    DON'T EAT,2691.5835,2671.4165,2659.3298
170,0,True,left,avoid,pos,meat22_crop.jpg,3,17,1.0,169.0,2,2694.4915,110.0,17.0,EAT                                    DON'T EAT,2693.6018,2671.4165,2659.3298
171,3,False,right,approach,pos,cake24_crop.jpg,3,18,1.0,170.0,1,2712.7646,110.0,18.0,EAT                                    DON'T EAT,2712.0671,2708.0469,2659.3298
172,3,False,right,approach,pos,cake18_crop.jpg,3,18,1.0,171.0,1,2714.5938,110.0,18.0,EAT                                    DON'T EAT,2714.085,2708.0469,2659.3298
173,3,True,right,avoid,pos,meat1_crop.jpg,3,18,1.0,172.0,2,2717.2983,110.0,18.0,EAT                                    DON'T EAT,2716.1035,2708.0469,2659.3298
174,3,True,right,avoid,neg,fungus28_crop.jpg,3,18,1.0,173.0,2,2718.8918,110.0,18.0,EAT                                    DON'T EAT,2718.122,2708.0469,2659.3298
175,3,False,right,approach,pos,cake25_crop.jpg,3,18,1.0,174.0,1,2720.7656,110.0,18.0,EAT                                    DON'T EAT,2720.1404,2708.0469,2659.3298
176,3,False,right,approach,pos,cake27_crop.jpg,3,18,1.0,175.0,1,2722.9863,110.0,18.0,EAT                                    DON'T EAT,2722.1587,2708.0469,2659.3298
177,3,False,right,approach,pos,cake3_crop.jpg,3,18,1.0,176.0,1,2724.7708,110.0,18.0,EAT                                    DON'T EAT,2724.177,2708.0469,2659.3298
178,3,False,right,approach,pos,cake15_crop.jpg,3,18,1.0,177.0,1,2726.7393,110.0,18.0,EAT                                    DON'T EAT,2726.1956,2708.0469,2659.3298
179,3,False,right,approach,pos,cake4_crop.jpg,3,18,1.0,178.0,1,2728.802,110.0,18.0,EAT                                    DON'T EAT,2728.2139,2708.0469,2659.3298
180,3,False,right,approach,pos,cake21_crop.jpg,3,18,1.0,179.0,1,2730.8582,110.0,18.0,EAT                                    DON'T EAT,2730.2322,2708.0469,2659.3298
181,1,False,left,approach,pos,cake38_crop.jpg,3,19,1.0,180.0,1,2748.7568,110.0,19.0,EAT                                    DON'T EAT,2747.9636,2743.943,2659.3298
182,1,True,left,avoid,neg,fungus39_crop.jpg,3,19,1.0,181.0,2,2750.6467,110.0,19.0,EAT                                    DON'T EAT,2749.982,2743.943,2659.3298
183,1,False,left,approach,pos,cake17_crop.jpg,3,19,1.0,182.0,1,2752.586,110.0,19.0,EAT                                    DON'T EAT,2752.0002,2743.943,2659.3298
184,1,False,left,approach,pos,cake28_crop.jpg,3,19,1.0,183.0,1,2754.5898,110.0,19.0,EAT                                    DON'T EAT,2754.0186,2743.943,2659.3298
185,1,False,left,approach,pos,cake16_crop.jpg,3,19,1.0,184.0,1,2756.5476,110.0,19.0,EAT                                    DON'T EAT,2756.0369,2743.943,2659.3298
186,1,False,left,approach,pos,cake7_crop.jpg,3,19,1.0,185.0,1,2758.6345,110.0,19.0,EAT                                    DON'T EAT,2758.0552,2743.943,2659.3298
187,1,False,left,approach,pos,cake2_crop.jpg,3,19,1.0,186.0,1,2760.581,110.0,19.0,EAT                                    DON'T EAT,2760.0735,2743.943,2659.3298
188,1,False,left,approach,pos,cake35_crop.jpg,3,19,1.0,187.0,1,2762.6611,110.0,19.0,EAT                                    DON'T EAT,2762.0918,2743.943,2659.3298
189,1,True,left,avoid,pos,meat32_crop.jpg,3,19,1.0,188.0,2,2764.9265,110.0,19.0,EAT                                    DON'T EAT,2764.1104,2743.943,2659.3298
190,1,False,left,approach,pos,cake31_crop.jpg,3,19,1.0,189.0,1,2766.748,110.0,19.0,EAT                                    DON'T EAT,2766.1287,2743.943,2659.3298
191,2,False,left,approach,neg,insect2_crop.jpg,3,20,1.0,190.0,1,2786.6887,110.0,20.0,EAT                                    DON'T EAT,2786.0278,2782.0083,2659.3298
192,2,False,left,approach,neg,insect9_crop.jpg,3,20,1.0,191.0,1,2788.5493,110.0,20.0,EAT                                    DON'T EAT,2788.0464,2782.0083,2659.3298
193,2,False,left,approach,neg,insect38_crop.jpg,3,20,1.0,192.0,1,2790.5078,110.0,20.0,EAT                                    DON'T EAT,2790.065,2782.0083,2659.3298
194,2,True,left,avoid,pos,meat1_crop.jpg,3,20,1.0,193.0,2,2792.8538,110.0,20.0,EAT                                    DON'T EAT,2792.0835,2782.0083,2659.3298
195,2,False,left,approach,neg,insect37_crop.jpg,3,20,1.0,194.0,1,2794.7974,110.0,20.0,EAT                                    DON'T EAT,2794.102,2782.0083,2659.3298
196,2,False,left,approach,neg,insect29_crop.jpg,3,20,1.0,195.0,1,2796.6602,110.0,20.0,EAT                                    DON'T EAT,2796.12,2782.0083,2659.3298
197,2,False,left,approach,neg,insect34_crop.jpg,3,20,1.0,196.0,1,2798.8555,110.0,20.0,EAT                                    DON'T EAT,2798.1384,2782.0083,2659.3298
198,2,False,left,approach,neg,insect39_crop.jpg,3,20,1.0,197.0,1,2800.7283,110.0,20.0,EAT                                    DON'T EAT,2800.1567,2782.0083,2659.3298
199,2,False,left,approach,neg,insect18_crop.jpg,3,20,1.0,198.0,1,2802.7036,110.0,20.0,EAT                                    DON'T EAT,2802.1748,2782.0083,2659.3298
200,2,True,left,avoid,neg,fungus2_crop.jpg,3,20,1.0,199.0,2,2804.8818,110.0,20.0,EAT                                    DON'T EAT,2804.1936,2782.0083,2659.3298
201,0,False,right,avoid,pos,meat2_crop.jpg,3,21,1.0,200.0,2,2823.4058,110.0,21.0,EAT                                    DON'T EAT,2822.6755,2818.6553,2659.3298
202,0,False,right,avoid,pos,meat11_crop.jpg,3,21,1.0,201.0,2,2825.4338,110.0,21.0,EAT                                    DON'T EAT,2824.6938,2818.6553,2659.3298
203,0,False,right,avoid,pos,meat21_crop.jpg,3,21,1.0,202.0,2,2827.393,110.0,21.0,EAT                                    DON'T EAT,2826.7117,2818.6553,2659.3298
204,0,True,right,approach,neg,insect19_crop.jpg,3,21,1.0,203.0,1,2829.429,110.0,21.0,EAT                                    DON'T EAT,2828.7305,2818.6553,2659.3298
205,0,False,right,avoid,pos,meat25_crop.jpg,3,21,1.0,204.0,2,2831.562,110.0,21.0,EAT                                    DON'T EAT,2830.749,2818.6553,2659.3298
206,0,False,right,avoid,pos,meat9_crop.jpg,3,21,1.0,205.0,2,2833.4119,110.0,21.0,EAT                                    DON'T EAT,2832.767,2818.6553,2659.3298
207,0,False,right,avoid,pos,meat36_crop.jpg,3,21,1.0,206.0,2,2835.375,110.0,21.0,EAT                                    DON'T EAT,2834.7854,2818.6553,2659.3298
208,0,False,right,avoid,pos,meat5_crop.jpg,3,21,1.0,207.0,2,2837.4314,110.0,21.0,EAT                                    DON'T EAT,2836.8032,2818.6553,2659.3298
209,0,True,right,approach,pos,cake38_crop.jpg,3,21,1.0,208.0,1,2839.489,110.0,21.0,EAT                                    DON'T EAT,2838.822,2818.6553,2659.3298
210,0,False,right,avoid,pos,meat35_crop.jpg,3,21,1.0,209.0,2,2841.5276,110.0,21.0,EAT                                    DON'T EAT,2840.8406,2818.6553,2659.3298
211,1,False,left,avoid,neg,fungus34_crop.jpg,3,22,1.0,210.0,2,2858.6672,110.0,22.0,EAT                                    DON'T EAT,2857.8875,2853.868,2659.3298
212,1,False,left,avoid,neg,fungus3_crop.jpg,3,22,1.0,211.0,2,2860.559,110.0,22.0,EAT                                    DON'T EAT,2859.9062,2853.868,2659.3298
213,1,False,left,avoid,neg,fungus28_crop.jpg,3,22,1.0,212.0,2,2862.4204,110.0,22.0,EAT                                    DON'T EAT,2861.9248,2853.868,2659.3298
214,1,False,left,avoid,neg,fungus32_crop.jpg,3,22,1.0,213.0,2,2864.4817,110.0,22.0,EAT                                    DON'T EAT,2863.943,2853.868,2659.3298
215,1,True,left,approach,pos,cake25_crop.jpg,3,22,1.0,214.0,1,2866.6187,110.0,22.0,EAT                                    DON'T EAT,2865.9614,2853.868,2659.3298
216,1,True,left,approach,neg,insect24_crop.jpg,3,22,1.0,215.0,1,2868.6768,110.0,22.0,EAT                                    DON'T EAT,2867.9797,2853.868,2659.3298
217,1,False,left,avoid,neg,fungus35_crop.jpg,3,22,1.0,216.0,2,2870.6858,110.0,22.0,EAT                                    DON'T EAT,2869.998,2853.868,2659.3298
218,1,False,left,avoid,neg,fungus13_crop.jpg,3,22,1.0,217.0,2,2872.7336,110.0,22.0,EAT                                    DON'T EAT,2872.016,2853.868,2659.3298
219,1,False,left,avoid,neg,fungus11_crop.jpg,3,22,1.0,218.0,2,2874.6392,110.0,22.0,EAT                                    DON'T EAT,2874.035,2853.868,2659.3298
220,1,False,left,avoid,neg,fungus4_crop.jpg,3,22,1.0,219.0,2,2876.625,110.0,22.0,EAT                                    DON'T EAT,2876.0532,2853.868,2659.3298
221,3,False,left,avoid,neg,fungus16_crop.jpg,3,23,1.0,220.0,2,2894.9026,110.0,23.0,EAT                                    DON'T EAT,2894.1848,2890.1648,2659.3298
222,3,True,left,approach,pos,cake13_crop.jpg,3,23,1.0,221.0,1,2896.8086,110.0,23.0,EAT                                    DON'T EAT,2896.2031,2890.1648,2659.3298
223,3,False,left,avoid,neg,fungus26_crop.jpg,3,23,1.0,222.0,2,2898.9404,110.0,23.0,EAT                                    DON'T EAT,2898.2214,2890.1648,2659.3298
224,3,False,left,avoid,neg,fungus19_crop.jpg,3,23,1.0,223.0,2,2900.852,110.0,23.0,EAT                                    DON'T EAT,2900.2397,2890.1648,2659.3298
225,3,False,left,avoid,neg,fungus40_crop.jpg,3,23,1.0,224.0,2,2902.798,110.0,23.0,EAT                                    DON'T EAT,2902.258,2890.1648,2659.3298
226,3,False,left,avoid,neg,fungus9_crop.jpg,3,23,1.0,225.0,2,2904.7498,110.0,23.0,EAT                                    DON'T EAT,2904.2766,2890.1648,2659.3298
227,3,False,left,avoid,neg,fungus25_crop.jpg,3,23,1.0,226.0,2,2906.847,110.0,23.0,EAT                                    DON'T EAT,2906.2947,2890.1648,2659.3298
228,3,False,left,avoid,neg,fungus36_crop.jpg,3,23,1.0,227.0,2,2908.9465,110.0,23.0,EAT                                    DON'T EAT,2908.3132,2890.1648,2659.3298
229,3,True,left,approach,neg,insect27_crop.jpg,3,23,1.0,228.0,1,2911.023,110.0,23.0,EAT                                    DON'T EAT,2910.3315,2890.1648,2659.3298
230,3,False,left,avoid,neg,fungus5_crop.jpg,3,23,1.0,229.0,2,2913.582,110.0,23.0,EAT                                    DON'T EAT,2912.3499,2890.1648,2659.3298
231,3,False,left,avoid,pos,meat11_crop.jpg,3,24,1.0,230.0,2,2931.3904,110.0,24.0,EAT                                    DON'T EAT,2930.5984,2926.5781,2659.3298
232,3,True,left,approach,pos,cake22_crop.jpg,3,24,1.0,231.0,1,2933.252,110.0,24.0,EAT                                    DON'T EAT,2932.6167,2926.5781,2659.3298
233,3,False,left,avoid,pos,meat5_crop.jpg,3,24,1.0,232.0,2,2935.1848,110.0,24.0,EAT                                    DON'T EAT,2934.6348,2926.5781,2659.3298
234,3,False,left,avoid,pos,meat28_crop.jpg,3,24,1.0,233.0,2,2937.2637,110.0,24.0,EAT                                    DON'T EAT,2936.653,2926.5781,2659.3298
235,3,False,left,avoid,pos,meat35_crop.jpg,3,24,1.0,234.0,2,2939.2551,110.0,24.0,EAT                                    DON'T EAT,2938.6716,2926.5781,2659.3298
236,3,False,left,avoid,pos,meat30_crop.jpg,3,24,1.0,235.0,2,2941.3125,110.0,24.0,EAT                                    DON'T EAT,2940.6902,2926.5781,2659.3298
237,3,True,left,approach,neg,insect7_crop.jpg,3,24,1.0,236.0,1,2943.321,110.0,24.0,EAT                                    DON'T EAT,2942.7085,2926.5781,2659.3298
238,3,False,left,avoid,pos,meat3_crop.jpg,3,24,1.0,237.0,2,2945.3713,110.0,24.0,EAT                                    DON'T EAT,2944.7268,2926.5781,2659.3298
239,3,False,left,avoid,pos,meat36_crop.jpg,3,24,1.0,238.0,2,2947.3247,110.0,24.0,EAT                                    DON'T EAT,2946.7446,2926.5781,2659.3298
240,3,False,left,avoid,pos,meat40_crop.jpg,3,24,1.0,239.0,2,2949.1868,110.0,24.0,EAT                                    DON'T EAT,2948.763,2926.5781,2659.3298
241,1,False,right,approach,neg,insect16_crop.jpg,4,25,1.0,240.0,1,3044.5789,110.0,25.0,EAT                                    DON'T EAT,3043.8252,3039.8218,3028.9692
242,1,True,right,avoid,neg,fungus21_crop.jpg,4,25,1.0,241.0,2,3046.5298,110.0,25.0,EAT                                    DON'T EAT,3045.844,3039.8218,3028.9692
243,1,False,right,approach,neg,insect5_crop.jpg,4,25,1.0,242.0,1,3048.5283,110.0,25.0,EAT                                    DON'T EAT,3047.8623,3039.8218,3028.9692
244,1,False,right,approach,neg,insect27_crop.jpg,4,25,1.0,243.0,1,3050.4905,110.0,25.0,EAT                                    DON'T EAT,3049.8806,3039.8218,3028.9692
245,1,False,right,approach,neg,insect22_crop.jpg,4,25,1.0,244.0,1,3052.4617,110.0,25.0,EAT                                    DON'T EAT,3051.8987,3039.8218,3028.9692
246,1,True,right,avoid,pos,meat12_crop.jpg,4,25,1.0,245.0,2,3054.4758,110.0,25.0,EAT                                    DON'T EAT,3053.9172,3039.8218,3028.9692
247,1,False,right,approach,neg,insect4_crop.jpg,4,25,1.0,246.0,1,3056.4978,110.0,25.0,EAT                                    DON'T EAT,3055.9358,3039.8218,3028.9692
248,1,False,right,approach,neg,insect24_crop.jpg,4,25,1.0,247.0,1,3058.6846,110.0,25.0,EAT                                    DON'T EAT,3057.9539,3039.8218,3028.9692
249,1,False,right,approach,neg,insect38_crop.jpg,4,25,1.0,248.0,1,3060.6074,110.0,25.0,EAT                                    DON'T EAT,3059.9722,3039.8218,3028.9692
250,1,False,right,approach,neg,insect35_crop.jpg,4,25,1.0,249.0,1,3062.5625,110.0,25.0,EAT                                    DON'T EAT,3061.9907,3039.8218,3028.9692
251,3,True,left,avoid,neg,fungus33_crop.jpg,4,26,1.0,250.0,2,3080.7,110.0,26.0,EAT                                    DON'T EAT,3079.9055,3075.8855,3028.9692
252,3,False,left,approach,pos,cake18_crop.jpg,4,26,1.0,251.0,1,3082.6514,110.0,26.0,EAT                                    DON'T EAT,3081.924,3075.8855,3028.9692
253,3,False,left,approach,pos,cake30_crop.jpg,4,26,1.0,252.0,1,3084.686,110.0,26.0,EAT                                    DON'T EAT,3083.9421,3075.8855,3028.9692
254,3,False,left,approach,pos,cake32_crop.jpg,4,26,1.0,253.0,1,3086.5647,110.0,26.0,EAT                                    DON'T EAT,3085.9604,3075.8855,3028.9692
255,3,False,left,approach,pos,cake40_crop.jpg,4,26,1.0,254.0,1,3088.5273,110.0,26.0,EAT                                    DON'T EAT,3087.9788,3075.8855,3028.9692
256,3,False,left,approach,pos,cake20_crop.jpg,4,26,1.0,255.0,1,3090.5474,110.0,26.0,EAT                                    DON'T EAT,3089.997,3075.8855,3028.9692
257,3,False,left,approach,pos,cake15_crop.jpg,4,26,1.0,256.0,1,3092.4385,110.0,26.0,EAT                                    DON'T EAT,3092.0154,3075.8855,3028.9692
258,3,False,left,approach,pos,cake8_crop.jpg,4,26,1.0,257.0,1,3094.6016,110.0,26.0,EAT                                    DON'T EAT,3094.034,3075.8855,3028.9692
259,3,False,left,approach,pos,cake26_crop.jpg,4,26,1.0,258.0,1,3096.5693,110.0,26.0,EAT                                    DON'T EAT,3096.0522,3075.8855,3028.9692
260,3,True,left,avoid,pos,meat29_crop.jpg,4,26,1.0,259.0,2,3098.7166,110.0,26.0,EAT                                    DON'T EAT,3098.0706,3075.8855,3028.9692
261,2,False,left,avoid,pos,meat16_crop.jpg,4,27,1.0,260.0,2,3116.8274,110.0,27.0,EAT                                    DON'T EAT,3115.9521,3111.9321,3028.9692
262,2,False,left,avoid,pos,meat15_crop.jpg,4,27,1.0,261.0,2,3118.5718,110.0,27.0,EAT                                    DON'T EAT,3117.9705,3111.9321,3028.9692
263,2,False,left,avoid,pos,meat9_crop.jpg,4,27,1.0,262.0,2,3120.5757,110.0,27.0,EAT                                    DON'T EAT,3119.9888,3111.9321,3028.9692
264,2,True,left,approach,pos,cake6_crop.jpg,4,27,1.0,263.0,1,3122.6846,110.0,27.0,EAT                                    DON'T EAT,3122.007,3111.9321,3028.9692
265,2,False,left,avoid,pos,meat20_crop.jpg,4,27,1.0,264.0,2,3124.6936,110.0,27.0,EAT                                    DON'T EAT,3124.0254,3111.9321,3028.9692
266,2,False,left,avoid,pos,meat12_crop.jpg,4,27,1.0,265.0,2,3126.5186,110.0,27.0,EAT                                    DON'T EAT,3126.044,3111.9321,3028.9692
267,2,False,left,avoid,pos,meat24_crop.jpg,4,27,1.0,266.0,2,3128.6858,110.0,27.0,EAT                                    DON'T EAT,3128.062,3111.9321,3028.9692
268,2,False,left,avoid,pos,meat26_crop.jpg,4,27,1.0,267.0,2,3130.6501,110.0,27.0,EAT                                    DON'T EAT,3130.0806,3111.9321,3028.9692
269,2,False,left,avoid,pos,meat19_crop.jpg,4,27,1.0,268.0,2,3132.598,110.0,27.0,EAT                                    DON'T EAT,3132.0986,3111.9321,3028.9692
270,2,True,left,approach,neg,insect11_crop.jpg,4,27,1.0,269.0,1,3134.7507,110.0,27.0,EAT                                    DON'T EAT,3134.117,3111.9321,3028.9692
271,3,False,right,approach,neg,insect33_crop.jpg,4,28,1.0,270.0,1,3152.8076,110.0,28.0,EAT                                    DON'T EAT,3152.1821,3148.162,3028.9692
272,3,True,right,avoid,pos,meat27_crop.jpg,4,28,1.0,271.0,2,3154.8647,110.0,28.0,EAT                                    DON'T EAT,3154.2004,3148.162,3028.9692
273,3,False,right,approach,neg,insect28_crop.jpg,4,28,1.0,272.0,1,3156.8423,110.0,28.0,EAT                                    DON'T EAT,3156.2188,3148.162,3028.9692
274,3,False,right,approach,neg,insect6_crop.jpg,4,28,1.0,273.0,1,3158.8499,110.0,28.0,EAT                                    DON'T EAT,3158.237,3148.162,3028.9692
275,3,False,right,approach,neg,insect20_crop.jpg,4,28,1.0,274.0,1,3160.8105,110.0,28.0,EAT                                    DON'T EAT,3160.2554,3148.162,3028.9692
276,3,False,right,approach,neg,insect37_crop.jpg,4,28,1.0,275.0,1,3162.7903,110.0,28.0,EAT                                    DON'T EAT,3162.274,3148.162,3028.9692
277,3,False,right,approach,neg,insect25_crop.jpg,4,28,1.0,276.0,1,3164.8325,110.0,28.0,EAT                                    DON'T EAT,3164.2922,3148.162,3028.9692
278,3,False,right,approach,neg,insect15_crop.jpg,4,28,1.0,277.0,1,3166.7954,110.0,28.0,EAT                                    DON'T EAT,3166.3105,3148.162,3028.9692
279,3,False,right,approach,neg,insect26_crop.jpg,4,28,1.0,278.0,1,3168.7917,110.0,28.0,EAT                                    DON'T EAT,3168.3289,3148.162,3028.9692
280,3,True,right,avoid,neg,fungus24_crop.jpg,4,28,1.0,279.0,2,3170.9055,110.0,28.0,EAT                                    DON'T EAT,3170.3472,3148.162,3028.9692
281,1,False,right,avoid,pos,meat15_crop.jpg,4,29,1.0,280.0,2,3189.84,110.0,29.0,EAT                                    DON'T EAT,3189.1462,3185.1257,3028.9692
282,1,False,right,avoid,pos,meat26_crop.jpg,4,29,1.0,281.0,2,3191.6494,110.0,29.0,EAT                                    DON'T EAT,3191.1646,3185.1257,3028.9692
283,1,False,right,avoid,pos,meat14_crop.jpg,4,29,1.0,282.0,2,3193.7637,110.0,29.0,EAT                                    DON'T EAT,3193.1829,3185.1257,3028.9692
284,1,False,right,avoid,pos,meat7_crop.jpg,4,29,1.0,283.0,2,3195.7725,110.0,29.0,EAT                                    DON'T EAT,3195.2012,3185.1257,3028.9692
285,1,False,right,avoid,pos,meat16_crop.jpg,4,29,1.0,284.0,2,3197.8464,110.0,29.0,EAT                                    DON'T EAT,3197.2188,3185.1257,3028.9692
286,1,False,right,avoid,pos,meat40_crop.jpg,4,29,1.0,285.0,2,3199.8376,110.0,29.0,EAT                                    DON'T EAT,3199.2378,3185.1257,3028.9692
287,1,True,right,approach,pos,cake12_crop.jpg,4,29,1.0,286.0,1,3201.9858,110.0,29.0,EAT                                    DON'T EAT,3201.256,3185.1257,3028.9692
288,1,False,right,avoid,pos,meat22_crop.jpg,4,29,1.0,287.0,2,3203.879,110.0,29.0,EAT                                    DON'T EAT,3203.2744,3185.1257,3028.9692
289,1,False,right,avoid,pos,meat18_crop.jpg,4,29,1.0,288.0,2,3205.8962,110.0,29.0,EAT                                    DON'T EAT,3205.293,3185.1257,3028.9692
290,1,True,right,approach,neg,insect23_crop.jpg,4,29,1.0,289.0,1,3207.9473,110.0,29.0,EAT                                    DON'T EAT,3207.311,3185.1257,3028.9692
291,0,False,left,approach,pos,cake39_crop.jpg,4,30,1.0,290.0,1,3227.8572,110.0,30.0,EAT                                    DON'T EAT,3227.177,3223.1575,3028.9692
292,0,False,left,approach,pos,cake29_crop.jpg,4,30,1.0,291.0,1,3229.7146,110.0,30.0,EAT                                    DON'T EAT,3229.196,3223.1575,3028.9692
293,0,False,left,approach,pos,cake19_crop.jpg,4,30,1.0,292.0,1,3231.745,110.0,30.0,EAT                                    DON'T EAT,3231.2144,3223.1575,3028.9692
294,0,False,left,approach,pos,cake14_crop.jpg,4,30,1.0,293.0,1,3233.7412,110.0,30.0,EAT                                    DON'T EAT,3233.2327,3223.1575,3028.9692
295,0,False,left,approach,pos,cake5_crop.jpg,4,30,1.0,294.0,1,3235.717,110.0,30.0,EAT                                    DON'T EAT,3235.251,3223.1575,3028.9692
296,0,True,left,avoid,pos,meat8_crop.jpg,4,30,1.0,295.0,2,3237.9077,110.0,30.0,EAT                                    DON'T EAT,3237.2688,3223.1575,3028.9692
297,0,True,left,avoid,neg,fungus14_crop.jpg,4,30,1.0,296.0,2,3240.0596,110.0,30.0,EAT                                    DON'T EAT,3239.2876,3223.1575,3028.9692
298,0,False,left,approach,pos,cake3_crop.jpg,4,30,1.0,297.0,1,3241.9102,110.0,30.0,EAT                                    DON'T EAT,3241.3062,3223.1575,3028.9692
299,0,False,left,approach,pos,cake11_crop.jpg,4,30,1.0,298.0,1,3243.9587,110.0,30.0,EAT                                    DON'T EAT,3243.3245,3223.1575,3028.9692
300,0,False,left,approach,pos,cake36_crop.jpg,4,30,1.0,299.0,1,3245.871,110.0,30.0,EAT                                    DON'T EAT,3245.3428,3223.1575,3028.9692
301,1,False,right,avoid,neg,fungus25_crop.jpg,4,31,1.0,300.0,2,3262.19,110.0,31.0,EAT                                    DON'T EAT,3261.556,3257.536,3028.9692
302,1,True,right,approach,neg,insect21_crop.jpg,4,31,1.0,301.0,2,3264.0706,110.0,31.0,EAT                                    DON'T EAT,3263.5745,3257.536,3028.9692
303,1,False,right,avoid,neg,fungus2_crop.jpg,4,31,1.0,302.0,1,3265.7617,110.0,31.0,EAT                                    DON'T EAT,3265.5928,3257.536,3028.9692
304,1,False,right,avoid,neg,fungus7_crop.jpg,4,31,1.0,303.0,2,3268.1616,110.0,31.0,EAT                                    DON'T EAT,3267.611,3257.536,3028.9692
305,1,False,right,avoid,neg,fungus22_crop.jpg,4,31,1.0,304.0,2,3270.308,110.0,31.0,EAT                                    DON'T EAT,3269.6294,3257.536,3028.9692
306,1,False,right,avoid,neg,fungus29_crop.jpg,4,31,1.0,305.0,2,3272.2905,110.0,31.0,EAT                                    DON'T EAT,3271.648,3257.536,3028.9692
307,1,True,right,approach,pos,cake36_crop.jpg,4,31,1.0,306.0,1,3274.5215,110.0,31.0,EAT                                    DON'T EAT,3273.6663,3257.536,3028.9692
308,1,False,right,avoid,neg,fungus15_crop.jpg,4,31,1.0,307.0,2,3276.3535,110.0,31.0,EAT                                    DON'T EAT,3275.6846,3257.536,3028.9692
309,1,False,right,avoid,neg,fungus35_crop.jpg,4,31,1.0,308.0,2,3278.3906,110.0,31.0,EAT                                    DON'T EAT,3277.703,3257.536,3028.9692
310,1,False,right,avoid,neg,fungus34_crop.jpg,4,31,1.0,309.0,2,3280.281,110.0,31.0,EAT                                    DON'T EAT,3279.7212,3257.536,3028.9692
311,3,False,left,approach,neg,insect16_crop.jpg,4,32,1.0,310.0,1,3299.0073,110.0,32.0,EAT                                    DON'T EAT,3298.32,3294.2998,3028.9692
312,3,False,left,approach,neg,insect14_crop.jpg,4,32,1.0,311.0,1,3300.9617,110.0,32.0,EAT                                    DON'T EAT,3300.338,3294.2998,3028.9692
313,3,False,left,approach,neg,insect6_crop.jpg,4,32,1.0,312.0,1,3303.014,110.0,32.0,EAT                                    DON'T EAT,3302.3567,3294.2998,3028.9692
314,3,False,left,approach,neg,insect23_crop.jpg,4,32,1.0,313.0,1,3304.891,110.0,32.0,EAT                                    DON'T EAT,3304.3748,3294.2998,3028.9692
315,3,False,left,approach,neg,insect10_crop.jpg,4,32,1.0,314.0,1,3307.0173,110.0,32.0,EAT                                    DON'T EAT,3306.3933,3294.2998,3028.9692
316,3,False,left,approach,neg,insect22_crop.jpg,4,32,1.0,315.0,1,3309.0354,110.0,32.0,EAT                                    DON'T EAT,3308.4119,3294.2998,3028.9692
317,3,True,left,avoid,pos,meat6_crop.jpg,4,32,1.0,316.0,2,3311.1484,110.0,32.0,EAT                                    DON'T EAT,3310.43,3294.2998,3028.9692
318,3,False,left,approach,neg,insect12_crop.jpg,4,32,1.0,317.0,1,3313.1045,110.0,32.0,EAT                                    DON'T EAT,3312.448,3294.2998,3028.9692
319,3,True,left,avoid,neg,fungus7_crop.jpg,4,32,1.0,318.0,2,3315.1523,110.0,32.0,EAT                                    DON'T EAT,3314.4668,3294.2998,3028.9692
320,3,False,left,approach,neg,insect13_crop.jpg,4,32,1.0,319.0,1,3317.143,110.0,32.0,EAT                                    DON'T EAT,3316.4846,3294.2998,3028.9692
