TrialNumber,n_block,catch,hand,mot,val,stim_name,run_number,num_block,ran,order,response,RT,Subject number,n_b,left_side_resp_label,trial_onset,blk_instr_onset,baseline_onset
1,0,True,left,approach,pos,cake19_crop.jpg,1,1,1.0,0.0,2,1674.0222,35.0,1.0,DON'T EAT                                    EAT,1672.4265,1668.4061,1657.0818
2,0,False,left,avoid,neg,fungus28_crop.jpg,1,1,1.0,1.0,1,1675.5023,35.0,1.0,DON'T EAT                                    EAT,1674.4445,1668.4061,1657.0818
3,0,False,left,avoid,neg,fungus3_crop.jpg,1,1,1.0,2.0,1,1677.5319,35.0,1.0,DON'T EAT                                    EAT,1676.4626,1668.4061,1657.0818
4,0,False,left,avoid,neg,fungus36_crop.jpg,1,1,1.0,3.0,1,1679.3531,35.0,1.0,DON'T EAT                                    EAT,1678.4844,1668.4061,1657.0818
5,0,False,left,avoid,neg,fungus11_crop.jpg,1,1,1.0,4.0,--,--,35.0,1.0,DON'T EAT                                    EAT,1680.5022,1668.4061,1657.0818
6,0,False,left,avoid,neg,fungus22_crop.jpg,1,1,1.0,5.0,1,1682.793,35.0,1.0,DON'T EAT                                    EAT,1682.518,1668.4061,1657.0818
7,0,False,left,avoid,neg,fungus25_crop.jpg,1,1,1.0,6.0,1,1685.174,35.0,1.0,DON'T EAT                                    EAT,1684.5363,1668.4061,1657.0818
8,0,False,left,avoid,neg,fungus19_crop.jpg,1,1,1.0,7.0,1,1687.276,35.0,1.0,DON'T EAT                                    EAT,1686.5546,1668.4061,1657.0818
9,0,True,left,approach,neg,insect21_crop.jpg,1,1,1.0,8.0,2,1689.3761,35.0,1.0,DON'T EAT                                    EAT,1688.5726,1668.4061,1657.0818
10,0,False,left,avoid,neg,fungus1_crop.jpg,1,1,1.0,9.0,1,1691.1957,35.0,1.0,DON'T EAT                                    EAT,1690.5913,1668.4061,1657.0818
11,1,False,left,avoid,pos,meat19_crop.jpg,1,2,1.0,10.0,1,1710.2793,35.0,2.0,DON'T EAT                                    EAT,1708.9899,1704.9698,1657.0818
12,1,False,left,avoid,pos,meat16_crop.jpg,1,2,1.0,11.0,1,1711.8972,35.0,2.0,DON'T EAT                                    EAT,1711.008,1704.9698,1657.0818
13,1,False,left,avoid,pos,meat7_crop.jpg,1,2,1.0,12.0,1,1713.6506,35.0,2.0,DON'T EAT                                    EAT,1713.0266,1704.9698,1657.0818
14,1,True,left,approach,pos,cake17_crop.jpg,1,2,1.0,13.0,2,1715.8993,35.0,2.0,DON'T EAT                                    EAT,1715.0449,1704.9698,1657.0818
15,1,False,left,avoid,pos,meat2_crop.jpg,1,2,1.0,14.0,1,1717.76,35.0,2.0,DON'T EAT                                    EAT,1717.0631,1704.9698,1657.0818
16,1,True,left,approach,neg,insect40_crop.jpg,1,2,1.0,15.0,2,1719.8539,35.0,2.0,DON'T EAT                                    EAT,1719.0818,1704.9698,1657.0818
17,1,False,left,avoid,pos,meat28_crop.jpg,1,2,1.0,16.0,1,1721.9451,35.0,2.0,DON'T EAT                                    EAT,1721.0997,1704.9698,1657.0818
18,1,False,left,avoid,pos,meat15_crop.jpg,1,2,1.0,17.0,1,1723.8894,35.0,2.0,DON'T EAT                                    EAT,1723.1183,1704.9698,1657.0818
19,1,False,left,avoid,pos,meat33_crop.jpg,1,2,1.0,18.0,1,1725.9341,35.0,2.0,DON'T EAT                                    EAT,1725.1366,1704.9698,1657.0818
20,1,False,left,avoid,pos,meat39_crop.jpg,1,2,1.0,19.0,1,1727.8152,35.0,2.0,DON'T EAT                                    EAT,1727.1549,1704.9698,1657.0818
21,1,False,left,approach,neg,insect39_crop.jpg,1,3,1.0,20.0,2,1746.4133,35.0,3.0,DON'T EAT                                    EAT,1745.3033,1741.2831,1657.0818
22,1,False,left,approach,neg,insect36_crop.jpg,1,3,1.0,21.0,2,1747.9393,35.0,3.0,DON'T EAT                                    EAT,1747.3218,1741.2831,1657.0818
23,1,False,left,approach,neg,insect9_crop.jpg,1,3,1.0,22.0,2,1749.8894,35.0,3.0,DON'T EAT                                    EAT,1749.3401,1741.2831,1657.0818
24,1,True,left,avoid,pos,meat11_crop.jpg,1,3,1.0,23.0,1,1752.1097,35.0,3.0,DON'T EAT                                    EAT,1751.3586,1741.2831,1657.0818
25,1,False,left,approach,neg,insect23_crop.jpg,1,3,1.0,24.0,2,1754.1151,35.0,3.0,DON'T EAT                                    EAT,1753.3767,1741.2831,1657.0818
26,1,False,left,approach,neg,insect4_crop.jpg,1,3,1.0,25.0,2,1755.9852,35.0,3.0,DON'T EAT                                    EAT,1755.395,1741.2831,1657.0818
27,1,False,left,approach,neg,insect7_crop.jpg,1,3,1.0,26.0,2,1757.9028,35.0,3.0,DON'T EAT                                    EAT,1757.4132,1741.2831,1657.0818
28,1,False,left,approach,neg,insect22_crop.jpg,1,3,1.0,27.0,2,1760.1,35.0,3.0,DON'T EAT                                    EAT,1759.4319,1741.2831,1657.0818
29,1,False,left,approach,neg,insect5_crop.jpg,1,3,1.0,28.0,2,1762.0117,35.0,3.0,DON'T EAT                                    EAT,1761.4502,1741.2831,1657.0818
30,1,True,left,avoid,neg,fungus13_crop.jpg,1,3,1.0,29.0,1,1764.3798,35.0,3.0,DON'T EAT                                    EAT,1763.4685,1741.2831,1657.0818
31,1,False,right,avoid,neg,fungus30_crop.jpg,1,4,1.0,30.0,1,1783.3954,35.0,4.0,DON'T EAT                                    EAT,1782.284,1778.264,1657.0818
32,1,False,right,avoid,neg,fungus25_crop.jpg,1,4,1.0,31.0,1,1784.9587,35.0,4.0,DON'T EAT                                    EAT,1784.3025,1778.264,1657.0818
33,1,False,right,avoid,neg,fungus28_crop.jpg,1,4,1.0,32.0,1,1786.8788,35.0,4.0,DON'T EAT                                    EAT,1786.3202,1778.264,1657.0818
34,1,True,right,approach,pos,cake18_crop.jpg,1,4,1.0,33.0,2,1789.28,35.0,4.0,DON'T EAT                                    EAT,1788.3389,1778.264,1657.0818
35,1,False,right,avoid,neg,fungus33_crop.jpg,1,4,1.0,34.0,1,1791.4343,35.0,4.0,DON'T EAT                                    EAT,1790.3575,1778.264,1657.0818
36,1,False,right,avoid,neg,fungus2_crop.jpg,1,4,1.0,35.0,1,1793.0442,35.0,4.0,DON'T EAT                                    EAT,1792.3759,1778.264,1657.0818
37,1,False,right,avoid,neg,fungus10_crop.jpg,1,4,1.0,36.0,1,1795.0328,35.0,4.0,DON'T EAT                                    EAT,1794.3943,1778.264,1657.0818
38,1,True,right,approach,neg,insect16_crop.jpg,1,4,1.0,37.0,2,1797.2047,35.0,4.0,DON'T EAT                                    EAT,1796.4125,1778.264,1657.0818
39,1,False,right,avoid,neg,fungus40_crop.jpg,1,4,1.0,38.0,1,1799.2246,35.0,4.0,DON'T EAT                                    EAT,1798.4309,1778.264,1657.0818
40,1,False,right,avoid,neg,fungus23_crop.jpg,1,4,1.0,39.0,1,1801.2018,35.0,4.0,DON'T EAT                                    EAT,1800.4489,1778.264,1657.0818
41,1,True,left,approach,pos,cake39_crop.jpg,1,5,1.0,40.0,2,1818.8656,35.0,5.0,DON'T EAT                                    EAT,1817.8466,1813.827,1657.0818
42,1,False,left,avoid,neg,fungus8_crop.jpg,1,5,1.0,41.0,1,1821.04,35.0,5.0,DON'T EAT                                    EAT,1819.8654,1813.827,1657.0818
43,1,False,left,avoid,neg,fungus21_crop.jpg,1,5,1.0,42.0,1,1822.5922,35.0,5.0,DON'T EAT                                    EAT,1821.8835,1813.827,1657.0818
44,1,False,left,avoid,neg,fungus34_crop.jpg,1,5,1.0,43.0,1,1824.6112,35.0,5.0,DON'T EAT                                    EAT,1823.9022,1813.827,1657.0818
45,1,True,left,approach,neg,insect16_crop.jpg,1,5,1.0,44.0,2,1826.6564,35.0,5.0,DON'T EAT                                    EAT,1825.9204,1813.827,1657.0818
46,1,False,left,avoid,neg,fungus32_crop.jpg,1,5,1.0,45.0,1,1828.6377,35.0,5.0,DON'T EAT                                    EAT,1827.9388,1813.827,1657.0818
47,1,False,left,avoid,neg,fungus14_crop.jpg,1,5,1.0,46.0,1,1830.6356,35.0,5.0,DON'T EAT                                    EAT,1829.9572,1813.827,1657.0818
48,1,False,left,avoid,neg,fungus38_crop.jpg,1,5,1.0,47.0,1,1832.9181,35.0,5.0,DON'T EAT                                    EAT,1831.9753,1813.827,1657.0818
49,1,False,left,avoid,neg,fungus20_crop.jpg,1,5,1.0,48.0,1,1834.765,35.0,5.0,DON'T EAT                                    EAT,1833.9937,1813.827,1657.0818
50,1,False,left,avoid,neg,fungus30_crop.jpg,1,5,1.0,49.0,1,1836.6489,35.0,5.0,DON'T EAT                                    EAT,1836.0121,1813.827,1657.0818
51,2,False,right,approach,neg,insect32_crop.jpg,1,6,1.0,50.0,2,1854.1343,35.0,6.0,DON'T EAT                                    EAT,1853.2264,1849.2064,1657.0818
52,2,False,right,approach,neg,insect38_crop.jpg,1,6,1.0,51.0,2,1855.8359,35.0,6.0,DON'T EAT                                    EAT,1855.2446,1849.2064,1657.0818
53,2,False,right,approach,neg,insect5_crop.jpg,1,6,1.0,52.0,2,1857.8445,35.0,6.0,DON'T EAT                                    EAT,1857.263,1849.2064,1657.0818
54,2,False,right,approach,neg,insect34_crop.jpg,1,6,1.0,53.0,2,1859.8307,35.0,6.0,DON'T EAT                                    EAT,1859.2812,1849.2064,1657.0818
55,2,True,right,avoid,pos,meat16_crop.jpg,1,6,1.0,54.0,1,1862.1982,35.0,6.0,DON'T EAT                                    EAT,1861.2998,1849.2064,1657.0818
56,2,True,right,avoid,neg,fungus26_crop.jpg,1,6,1.0,55.0,1,1864.1128,35.0,6.0,DON'T EAT                                    EAT,1863.3181,1849.2064,1657.0818
57,2,False,right,approach,neg,insect4_crop.jpg,1,6,1.0,56.0,2,1866.2452,35.0,6.0,DON'T EAT                                    EAT,1865.3364,1849.2064,1657.0818
58,2,False,right,approach,neg,insect6_crop.jpg,1,6,1.0,57.0,2,1868.4141,35.0,6.0,DON'T EAT                                    EAT,1867.3547,1849.2064,1657.0818
59,2,False,right,approach,neg,insect25_crop.jpg,1,6,1.0,58.0,2,1869.9446,35.0,6.0,DON'T EAT                                    EAT,1869.373,1849.2064,1657.0818
60,2,False,right,approach,neg,insect40_crop.jpg,1,6,1.0,59.0,2,1872.0138,35.0,6.0,DON'T EAT                                    EAT,1871.3907,1849.2064,1657.0818
61,2,False,right,avoid,pos,meat27_crop.jpg,1,7,1.0,60.0,--,--,35.0,7.0,DON'T EAT                                    EAT,1889.6066,1885.5863,1657.0818
62,2,False,right,avoid,pos,meat6_crop.jpg,1,7,1.0,61.0,--,--,35.0,7.0,DON'T EAT                                    EAT,1891.6249,1885.5863,1657.0818
63,2,True,right,approach,neg,insect17_crop.jpg,1,7,1.0,62.0,--,--,35.0,7.0,DON'T EAT                                    EAT,1893.6433,1885.5863,1657.0818
64,2,False,right,avoid,pos,meat18_crop.jpg,1,7,1.0,63.0,--,--,35.0,7.0,DON'T EAT                                    EAT,1895.6616,1885.5863,1657.0818
65,2,False,right,avoid,pos,meat19_crop.jpg,1,7,1.0,64.0,1,1899.1713,35.0,7.0,DON'T EAT                                    EAT,1897.6799,1885.5863,1657.0818
66,2,False,right,avoid,pos,meat25_crop.jpg,1,7,1.0,65.0,--,--,35.0,7.0,DON'T EAT                                    EAT,1899.6984,1885.5863,1657.0818
67,2,True,right,approach,pos,cake17_crop.jpg,1,7,1.0,66.0,--,--,35.0,7.0,DON'T EAT                                    EAT,1901.7164,1885.5863,1657.0818
68,2,False,right,avoid,pos,meat10_crop.jpg,1,7,1.0,67.0,--,--,35.0,7.0,DON'T EAT                                    EAT,1903.735,1885.5863,1657.0818
69,2,False,right,avoid,pos,meat4_crop.jpg,1,7,1.0,68.0,--,--,35.0,7.0,DON'T EAT                                    EAT,1905.7534,1885.5863,1657.0818
70,2,False,right,avoid,pos,meat26_crop.jpg,1,7,1.0,69.0,1,1907.9524,35.0,7.0,DON'T EAT                                    EAT,1907.7717,1885.5863,1657.0818
71,0,False,right,avoid,pos,meat14_crop.jpg,1,8,1.0,70.0,--,--,35.0,8.0,DON'T EAT                                    EAT,1927.4714,1923.4512,1657.0818
72,0,True,right,approach,neg,insect26_crop.jpg,1,8,1.0,71.0,--,--,35.0,8.0,DON'T EAT                                    EAT,1929.4897,1923.4512,1657.0818
73,0,False,right,avoid,pos,meat29_crop.jpg,1,8,1.0,72.0,--,--,35.0,8.0,DON'T EAT                                    EAT,1931.508,1923.4512,1657.0818
74,0,False,right,avoid,pos,meat33_crop.jpg,1,8,1.0,73.0,--,--,35.0,8.0,DON'T EAT                                    EAT,1933.5264,1923.4512,1657.0818
75,0,True,right,approach,pos,cake25_crop.jpg,1,8,1.0,74.0,--,--,35.0,8.0,DON'T EAT                                    EAT,1935.5447,1923.4512,1657.0818
76,0,False,right,avoid,pos,meat2_crop.jpg,1,8,1.0,75.0,--,--,35.0,8.0,DON'T EAT                                    EAT,1937.5625,1923.4512,1657.0818
77,0,False,right,avoid,pos,meat40_crop.jpg,1,8,1.0,76.0,--,--,35.0,8.0,DON'T EAT                                    EAT,1939.5815,1923.4512,1657.0818
78,0,False,right,avoid,pos,meat3_crop.jpg,1,8,1.0,77.0,--,--,35.0,8.0,DON'T EAT                                    EAT,1941.5997,1923.4512,1657.0818
79,0,False,right,avoid,pos,meat23_crop.jpg,1,8,1.0,78.0,--,--,35.0,8.0,DON'T EAT                                    EAT,1943.618,1923.4512,1657.0818
80,0,False,right,avoid,pos,meat34_crop.jpg,1,8,1.0,79.0,--,--,35.0,8.0,DON'T EAT                                    EAT,1945.6365,1923.4512,1657.0818
81,3,False,left,avoid,pos,meat12_crop.jpg,2,9,1.0,80.0,1,2355.7188,35.0,9.0,DON'T EAT                                    EAT,2354.6262,2350.606,2338.801
82,3,True,left,approach,pos,cake35_crop.jpg,2,9,1.0,81.0,2,2357.44,35.0,9.0,DON'T EAT                                    EAT,2356.6445,2350.606,2338.801
83,3,False,left,avoid,pos,meat6_crop.jpg,2,9,1.0,82.0,1,2359.4993,35.0,9.0,DON'T EAT                                    EAT,2358.6626,2350.606,2338.801
84,3,False,left,avoid,pos,meat25_crop.jpg,2,9,1.0,83.0,1,2361.5388,35.0,9.0,DON'T EAT                                    EAT,2360.6814,2350.606,2338.801
85,3,False,left,avoid,pos,meat26_crop.jpg,2,9,1.0,84.0,1,2363.59,35.0,9.0,DON'T EAT                                    EAT,2362.6997,2350.606,2338.801
86,3,False,left,avoid,pos,meat22_crop.jpg,2,9,1.0,85.0,1,2365.3533,35.0,9.0,DON'T EAT                                    EAT,2364.718,2350.606,2338.801
87,3,False,left,avoid,pos,meat14_crop.jpg,2,9,1.0,86.0,1,2367.6882,35.0,9.0,DON'T EAT                                    EAT,2366.7363,2350.606,2338.801
88,3,True,left,approach,neg,insect33_crop.jpg,2,9,1.0,87.0,2,2369.8867,35.0,9.0,DON'T EAT                                    EAT,2368.7546,2350.606,2338.801
89,3,False,left,avoid,pos,meat31_crop.jpg,2,9,1.0,88.0,1,2371.6223,35.0,9.0,DON'T EAT                                    EAT,2370.773,2350.606,2338.801
90,3,False,left,avoid,pos,meat4_crop.jpg,2,9,1.0,89.0,1,2373.491,35.0,9.0,DON'T EAT                                    EAT,2372.7915,2350.606,2338.801
91,1,False,right,approach,pos,cake22_crop.jpg,2,10,1.0,90.0,2,2390.6592,35.0,10.0,DON'T EAT                                    EAT,2389.4387,2385.4182,2338.801
92,1,False,right,approach,pos,cake12_crop.jpg,2,10,1.0,91.0,2,2392.0728,35.0,10.0,DON'T EAT                                    EAT,2391.4563,2385.4182,2338.801
93,1,False,right,approach,pos,cake40_crop.jpg,2,10,1.0,92.0,2,2394.0786,35.0,10.0,DON'T EAT                                    EAT,2393.4749,2385.4182,2338.801
94,1,False,right,approach,pos,cake36_crop.jpg,2,10,1.0,93.0,2,2396.0327,35.0,10.0,DON'T EAT                                    EAT,2395.4934,2385.4182,2338.801
95,1,False,right,approach,pos,cake20_crop.jpg,2,10,1.0,94.0,2,2397.9592,35.0,10.0,DON'T EAT                                    EAT,2397.5117,2385.4182,2338.801
96,1,False,right,approach,pos,cake34_crop.jpg,2,10,1.0,95.0,2,2400.3955,35.0,10.0,DON'T EAT                                    EAT,2399.5303,2385.4182,2338.801
97,1,False,right,approach,pos,cake28_crop.jpg,2,10,1.0,96.0,2,2402.1633,35.0,10.0,DON'T EAT                                    EAT,2401.5486,2385.4182,2338.801
98,1,True,right,avoid,pos,meat17_crop.jpg,2,10,1.0,97.0,1,2404.4795,35.0,10.0,DON'T EAT                                    EAT,2403.5667,2385.4182,2338.801
99,1,False,right,approach,pos,cake21_crop.jpg,2,10,1.0,98.0,2,2406.4219,35.0,10.0,DON'T EAT                                    EAT,2405.5852,2385.4182,2338.801
100,1,True,right,avoid,neg,fungus16_crop.jpg,2,10,1.0,99.0,1,2408.4592,35.0,10.0,DON'T EAT                                    EAT,2407.6035,2385.4182,2338.801
101,2,False,right,avoid,neg,fungus7_crop.jpg,2,11,1.0,100.0,1,2427.039,35.0,11.0,DON'T EAT                                    EAT,2426.2017,2422.1824,2338.801
102,2,True,right,approach,pos,cake32_crop.jpg,2,11,1.0,101.0,2,2429.3623,35.0,11.0,DON'T EAT                                    EAT,2428.2207,2422.1824,2338.801
103,2,False,right,avoid,neg,fungus32_crop.jpg,2,11,1.0,102.0,1,2431.0784,35.0,11.0,DON'T EAT                                    EAT,2430.2388,2422.1824,2338.801
104,2,False,right,avoid,neg,fungus6_crop.jpg,2,11,1.0,103.0,1,2433.0813,35.0,11.0,DON'T EAT                                    EAT,2432.2573,2422.1824,2338.801
105,2,False,right,avoid,neg,fungus4_crop.jpg,2,11,1.0,104.0,1,2435.0781,35.0,11.0,DON'T EAT                                    EAT,2434.2756,2422.1824,2338.801
106,2,True,right,approach,neg,insect7_crop.jpg,2,11,1.0,105.0,2,2437.0889,35.0,11.0,DON'T EAT                                    EAT,2436.294,2422.1824,2338.801
107,2,False,right,avoid,neg,fungus22_crop.jpg,2,11,1.0,106.0,1,2439.0425,35.0,11.0,DON'T EAT                                    EAT,2438.3125,2422.1824,2338.801
108,2,False,right,avoid,neg,fungus19_crop.jpg,2,11,1.0,107.0,1,2441.0212,35.0,11.0,DON'T EAT                                    EAT,2440.3308,2422.1824,2338.801
109,2,False,right,avoid,neg,fungus37_crop.jpg,2,11,1.0,108.0,1,2443.0186,35.0,11.0,DON'T EAT                                    EAT,2442.3489,2422.1824,2338.801
110,2,False,right,avoid,neg,fungus8_crop.jpg,2,11,1.0,109.0,1,2445.0864,35.0,11.0,DON'T EAT                                    EAT,2444.3674,2422.1824,2338.801
111,3,True,left,approach,pos,cake16_crop.jpg,2,12,1.0,110.0,2,2464.0671,35.0,12.0,DON'T EAT                                    EAT,2463.1165,2459.0964,2338.801
112,3,False,left,avoid,neg,fungus24_crop.jpg,2,12,1.0,111.0,1,2465.8982,35.0,12.0,DON'T EAT                                    EAT,2465.1345,2459.0964,2338.801
113,3,False,left,avoid,neg,fungus33_crop.jpg,2,12,1.0,112.0,1,2467.7244,35.0,12.0,DON'T EAT                                    EAT,2467.1528,2459.0964,2338.801
114,3,False,left,avoid,neg,fungus18_crop.jpg,2,12,1.0,113.0,1,2469.7334,35.0,12.0,DON'T EAT                                    EAT,2469.1714,2459.0964,2338.801
115,3,False,left,avoid,neg,fungus5_crop.jpg,2,12,1.0,114.0,1,2471.8376,35.0,12.0,DON'T EAT                                    EAT,2471.1897,2459.0964,2338.801
116,3,False,left,avoid,neg,fungus23_crop.jpg,2,12,1.0,115.0,1,2473.8643,35.0,12.0,DON'T EAT                                    EAT,2473.2083,2459.0964,2338.801
117,3,False,left,avoid,neg,fungus10_crop.jpg,2,12,1.0,116.0,1,2475.839,35.0,12.0,DON'T EAT                                    EAT,2475.2266,2459.0964,2338.801
118,3,True,left,approach,neg,insect20_crop.jpg,2,12,1.0,117.0,2,2478.2925,35.0,12.0,DON'T EAT                                    EAT,2477.2446,2459.0964,2338.801
119,3,False,left,avoid,neg,fungus37_crop.jpg,2,12,1.0,118.0,1,2479.9497,35.0,12.0,DON'T EAT                                    EAT,2479.263,2459.0964,2338.801
120,3,False,left,avoid,neg,fungus17_crop.jpg,2,12,1.0,119.0,1,2482.0542,35.0,12.0,DON'T EAT                                    EAT,2481.2812,2459.0964,2338.801
121,2,False,left,avoid,pos,meat30_crop.jpg,2,13,1.0,120.0,1,2499.54,35.0,13.0,DON'T EAT                                    EAT,2498.4624,2494.4424,2338.801
122,2,False,left,avoid,pos,meat18_crop.jpg,2,13,1.0,121.0,1,2501.114,35.0,13.0,DON'T EAT                                    EAT,2500.4807,2494.4424,2338.801
123,2,False,left,avoid,pos,meat34_crop.jpg,2,13,1.0,122.0,1,2503.2737,35.0,13.0,DON'T EAT                                    EAT,2502.499,2494.4424,2338.801
124,2,False,left,avoid,pos,meat38_crop.jpg,2,13,1.0,123.0,1,2505.1624,35.0,13.0,DON'T EAT                                    EAT,2504.5173,2494.4424,2338.801
125,2,True,left,approach,pos,cake4_crop.jpg,2,13,1.0,124.0,2,2507.3833,35.0,13.0,DON'T EAT                                    EAT,2506.5356,2494.4424,2338.801
126,2,True,left,approach,neg,insect1_crop.jpg,2,13,1.0,125.0,2,2509.3254,35.0,13.0,DON'T EAT                                    EAT,2508.5542,2494.4424,2338.801
127,2,False,left,avoid,pos,meat5_crop.jpg,2,13,1.0,126.0,1,2512.0017,35.0,13.0,DON'T EAT                                    EAT,2510.5725,2494.4424,2338.801
128,2,False,left,avoid,pos,meat1_crop.jpg,2,13,1.0,127.0,1,2513.425,35.0,13.0,DON'T EAT                                    EAT,2512.5908,2494.4424,2338.801
129,2,False,left,avoid,pos,meat36_crop.jpg,2,13,1.0,128.0,1,2515.2764,35.0,13.0,DON'T EAT                                    EAT,2514.609,2494.4424,2338.801
130,2,False,left,avoid,pos,meat32_crop.jpg,2,13,1.0,129.0,1,2517.2422,35.0,13.0,DON'T EAT                                    EAT,2516.6274,2494.4424,2338.801
131,1,True,left,avoid,neg,fungus7_crop.jpg,2,14,1.0,130.0,1,2534.1548,35.0,14.0,DON'T EAT                                    EAT,2533.3079,2529.2876,2338.801
132,1,False,left,approach,pos,cake38_crop.jpg,2,14,1.0,131.0,2,2536.332,35.0,14.0,DON'T EAT                                    EAT,2535.3264,2529.2876,2338.801
133,1,False,left,approach,pos,cake2_crop.jpg,2,14,1.0,132.0,2,2537.947,35.0,14.0,DON'T EAT                                    EAT,2537.3445,2529.2876,2338.801
134,1,False,left,approach,pos,cake36_crop.jpg,2,14,1.0,133.0,2,2539.8389,35.0,14.0,DON'T EAT                                    EAT,2539.363,2529.2876,2338.801
135,1,False,left,approach,pos,cake29_crop.jpg,2,14,1.0,134.0,2,2541.963,35.0,14.0,DON'T EAT                                    EAT,2541.3813,2529.2876,2338.801
136,1,True,left,avoid,pos,meat13_crop.jpg,2,14,1.0,135.0,1,2544.2234,35.0,14.0,DON'T EAT                                    EAT,2543.3997,2529.2876,2338.801
137,1,False,left,approach,pos,cake18_crop.jpg,2,14,1.0,136.0,2,2546.326,35.0,14.0,DON'T EAT                                    EAT,2545.418,2529.2876,2338.801
138,1,False,left,approach,pos,cake10_crop.jpg,2,14,1.0,137.0,2,2548.559,35.0,14.0,DON'T EAT                                    EAT,2547.4363,2529.2876,2338.801
139,1,False,left,approach,pos,cake21_crop.jpg,2,14,1.0,138.0,2,2550.1526,35.0,14.0,DON'T EAT                                    EAT,2549.4546,2529.2876,2338.801
140,1,False,left,approach,pos,cake30_crop.jpg,2,14,1.0,139.0,2,2552.108,35.0,14.0,DON'T EAT                                    EAT,2551.473,2529.2876,2338.801
141,1,True,right,approach,pos,cake37_crop.jpg,2,15,1.0,140.0,2,2570.4402,35.0,15.0,DON'T EAT                                    EAT,2569.6047,2565.5842,2338.801
142,1,False,right,avoid,pos,meat35_crop.jpg,2,15,1.0,141.0,1,2572.475,35.0,15.0,DON'T EAT                                    EAT,2571.623,2565.5842,2338.801
143,1,False,right,avoid,pos,meat22_crop.jpg,2,15,1.0,142.0,1,2574.3726,35.0,15.0,DON'T EAT                                    EAT,2573.642,2565.5842,2338.801
144,1,False,right,avoid,pos,meat1_crop.jpg,2,15,1.0,143.0,1,2576.2932,35.0,15.0,DON'T EAT                                    EAT,2575.66,2565.5842,2338.801
145,1,False,right,avoid,pos,meat5_crop.jpg,2,15,1.0,144.0,1,2578.3481,35.0,15.0,DON'T EAT                                    EAT,2577.6782,2565.5842,2338.801
146,1,False,right,avoid,pos,meat28_crop.jpg,2,15,1.0,145.0,1,2580.3323,35.0,15.0,DON'T EAT                                    EAT,2579.6965,2565.5842,2338.801
147,1,False,right,avoid,pos,meat12_crop.jpg,2,15,1.0,146.0,1,2582.2964,35.0,15.0,DON'T EAT                                    EAT,2581.7148,2565.5842,2338.801
148,1,True,right,approach,neg,insect20_crop.jpg,2,15,1.0,147.0,2,2584.5256,35.0,15.0,DON'T EAT                                    EAT,2583.7332,2565.5842,2338.801
149,1,False,right,avoid,pos,meat38_crop.jpg,2,15,1.0,148.0,1,2586.586,35.0,15.0,DON'T EAT                                    EAT,2585.7515,2565.5842,2338.801
150,1,False,right,avoid,pos,meat9_crop.jpg,2,15,1.0,149.0,1,2588.5322,35.0,15.0,DON'T EAT                                    EAT,2587.7698,2565.5842,2338.801
151,3,False,right,approach,pos,cake33_crop.jpg,2,16,1.0,150.0,2,2607.1357,35.0,16.0,DON'T EAT                                    EAT,2606.0017,2601.9814,2338.801
152,3,True,right,avoid,neg,fungus34_crop.jpg,2,16,1.0,151.0,1,2608.8774,35.0,16.0,DON'T EAT                                    EAT,2608.0198,2601.9814,2338.801
153,3,False,right,approach,pos,cake30_crop.jpg,2,16,1.0,152.0,2,2610.9897,35.0,16.0,DON'T EAT                                    EAT,2610.0386,2601.9814,2338.801
154,3,False,right,approach,pos,cake8_crop.jpg,2,16,1.0,153.0,2,2612.9133,35.0,16.0,DON'T EAT                                    EAT,2612.0566,2601.9814,2338.801
155,3,False,right,approach,pos,cake27_crop.jpg,2,16,1.0,154.0,2,2614.8037,35.0,16.0,DON'T EAT                                    EAT,2614.075,2601.9814,2338.801
156,3,False,right,approach,pos,cake38_crop.jpg,2,16,1.0,155.0,2,2616.6353,35.0,16.0,DON'T EAT                                    EAT,2616.0933,2601.9814,2338.801
157,3,False,right,approach,pos,cake23_crop.jpg,2,16,1.0,156.0,2,2618.8633,35.0,16.0,DON'T EAT                                    EAT,2618.1113,2601.9814,2338.801
158,3,True,right,avoid,pos,meat36_crop.jpg,2,16,1.0,157.0,1,2620.8728,35.0,16.0,DON'T EAT                                    EAT,2620.1301,2601.9814,2338.801
159,3,False,right,approach,pos,cake14_crop.jpg,2,16,1.0,158.0,2,2622.9014,35.0,16.0,DON'T EAT                                    EAT,2622.1484,2601.9814,2338.801
160,3,False,right,approach,pos,cake16_crop.jpg,2,16,1.0,159.0,2,2624.9817,35.0,16.0,DON'T EAT                                    EAT,2624.1667,2601.9814,2338.801
161,3,False,right,approach,neg,insect21_crop.jpg,3,17,1.0,160.0,2,2736.853,35.0,17.0,DON'T EAT                                    EAT,2735.8594,2731.8389,2718.87
162,3,False,right,approach,neg,insect14_crop.jpg,3,17,1.0,161.0,2,2738.6077,35.0,17.0,DON'T EAT                                    EAT,2737.8782,2731.8389,2718.87
163,3,False,right,approach,neg,insect2_crop.jpg,3,17,1.0,162.0,2,2740.5093,35.0,17.0,DON'T EAT                                    EAT,2739.8962,2731.8389,2718.87
164,3,False,right,approach,neg,insect19_crop.jpg,3,17,1.0,163.0,2,2742.4246,35.0,17.0,DON'T EAT                                    EAT,2741.9146,2731.8389,2718.87
165,3,True,right,avoid,pos,meat8_crop.jpg,3,17,1.0,164.0,1,2744.788,35.0,17.0,DON'T EAT                                    EAT,2743.9329,2731.8389,2718.87
166,3,False,right,approach,neg,insect11_crop.jpg,3,17,1.0,165.0,2,2746.743,35.0,17.0,DON'T EAT                                    EAT,2745.9512,2731.8389,2718.87
167,3,False,right,approach,neg,insect13_crop.jpg,3,17,1.0,166.0,2,2748.7532,35.0,17.0,DON'T EAT                                    EAT,2747.9697,2731.8389,2718.87
168,3,True,right,avoid,neg,fungus38_crop.jpg,3,17,1.0,167.0,1,2750.749,35.0,17.0,DON'T EAT                                    EAT,2749.988,2731.8389,2718.87
169,3,False,right,approach,neg,insect37_crop.jpg,3,17,1.0,168.0,2,2752.9817,35.0,17.0,DON'T EAT                                    EAT,2752.0063,2731.8389,2718.87
170,3,False,right,approach,neg,insect1_crop.jpg,3,17,1.0,169.0,2,2754.7725,35.0,17.0,DON'T EAT                                    EAT,2754.024,2731.8389,2718.87
171,0,False,left,approach,neg,insect38_crop.jpg,3,18,1.0,170.0,2,2773.0427,35.0,18.0,DON'T EAT                                    EAT,2771.656,2767.636,2718.87
172,0,False,left,approach,neg,insect28_crop.jpg,3,18,1.0,171.0,2,2774.3418,35.0,18.0,DON'T EAT                                    EAT,2773.6743,2767.636,2718.87
173,0,True,left,avoid,pos,meat21_crop.jpg,3,18,1.0,172.0,1,2776.4756,35.0,18.0,DON'T EAT                                    EAT,2775.6924,2767.636,2718.87
174,0,False,left,approach,neg,insect14_crop.jpg,3,18,1.0,173.0,2,2778.4333,35.0,18.0,DON'T EAT                                    EAT,2777.711,2767.636,2718.87
175,0,False,left,approach,neg,insect15_crop.jpg,3,18,1.0,174.0,2,2780.3538,35.0,18.0,DON'T EAT                                    EAT,2779.729,2767.636,2718.87
176,0,False,left,approach,neg,insect10_crop.jpg,3,18,1.0,175.0,2,2782.1948,35.0,18.0,DON'T EAT                                    EAT,2781.7478,2767.636,2718.87
177,0,False,left,approach,neg,insect24_crop.jpg,3,18,1.0,176.0,2,2784.3474,35.0,18.0,DON'T EAT                                    EAT,2783.766,2767.636,2718.87
178,0,False,left,approach,neg,insect34_crop.jpg,3,18,1.0,177.0,2,2786.2805,35.0,18.0,DON'T EAT                                    EAT,2785.7842,2767.636,2718.87
179,0,False,left,approach,neg,insect32_crop.jpg,3,18,1.0,178.0,2,2788.6624,35.0,18.0,DON'T EAT                                    EAT,2787.8025,2767.636,2718.87
180,0,True,left,avoid,neg,fungus26_crop.jpg,3,18,1.0,179.0,1,2790.5125,35.0,18.0,DON'T EAT                                    EAT,2789.8213,2767.636,2718.87
181,2,False,left,approach,pos,cake12_crop.jpg,3,19,1.0,180.0,2,2807.8887,35.0,19.0,DON'T EAT                                    EAT,2806.9353,2802.9153,2718.87
182,2,False,left,approach,pos,cake5_crop.jpg,3,19,1.0,181.0,2,2809.522,35.0,19.0,DON'T EAT                                    EAT,2808.9536,2802.9153,2718.87
183,2,False,left,approach,pos,cake27_crop.jpg,3,19,1.0,182.0,2,2811.4807,35.0,19.0,DON'T EAT                                    EAT,2810.9722,2802.9153,2718.87
184,2,False,left,approach,pos,cake14_crop.jpg,3,19,1.0,183.0,2,2813.458,35.0,19.0,DON'T EAT                                    EAT,2812.9902,2802.9153,2718.87
185,2,True,left,avoid,pos,meat20_crop.jpg,3,19,1.0,184.0,1,2815.9092,35.0,19.0,DON'T EAT                                    EAT,2815.0085,2802.9153,2718.87
186,2,False,left,approach,pos,cake26_crop.jpg,3,19,1.0,185.0,2,2817.8318,35.0,19.0,DON'T EAT                                    EAT,2817.027,2802.9153,2718.87
187,2,False,left,approach,pos,cake7_crop.jpg,3,19,1.0,186.0,2,2819.754,35.0,19.0,DON'T EAT                                    EAT,2819.0454,2802.9153,2718.87
188,2,False,left,approach,pos,cake22_crop.jpg,3,19,1.0,187.0,2,2821.6357,35.0,19.0,DON'T EAT                                    EAT,2821.0637,2802.9153,2718.87
189,2,False,left,approach,pos,cake1_crop.jpg,3,19,1.0,188.0,2,2823.5913,35.0,19.0,DON'T EAT                                    EAT,2823.0823,2802.9153,2718.87
190,2,True,left,avoid,neg,fungus12_crop.jpg,3,19,1.0,189.0,2,2825.5117,35.0,19.0,DON'T EAT                                    EAT,2825.0999,2802.9153,2718.87
191,2,True,left,avoid,pos,meat23_crop.jpg,3,20,1.0,190.0,1,2843.214,35.0,20.0,DON'T EAT                                    EAT,2842.198,2838.178,2718.87
192,2,False,left,approach,neg,insect31_crop.jpg,3,20,1.0,191.0,2,2845.1182,35.0,20.0,DON'T EAT                                    EAT,2844.2163,2838.178,2718.87
193,2,False,left,approach,neg,insect19_crop.jpg,3,20,1.0,192.0,2,2846.7646,35.0,20.0,DON'T EAT                                    EAT,2846.2344,2838.178,2718.87
194,2,False,left,approach,neg,insect26_crop.jpg,3,20,1.0,193.0,2,2848.7285,35.0,20.0,DON'T EAT                                    EAT,2848.2524,2838.178,2718.87
195,2,False,left,approach,neg,insect17_crop.jpg,3,20,1.0,194.0,2,2850.842,35.0,20.0,DON'T EAT                                    EAT,2850.2712,2838.178,2718.87
196,2,True,left,avoid,neg,fungus40_crop.jpg,3,20,1.0,195.0,1,2853.26,35.0,20.0,DON'T EAT                                    EAT,2852.2896,2838.178,2718.87
197,2,False,left,approach,neg,insect35_crop.jpg,3,20,1.0,196.0,2,2855.173,35.0,20.0,DON'T EAT                                    EAT,2854.308,2838.178,2718.87
198,2,False,left,approach,neg,insect18_crop.jpg,3,20,1.0,197.0,2,2857.0664,35.0,20.0,DON'T EAT                                    EAT,2856.3262,2838.178,2718.87
199,2,False,left,approach,neg,insect3_crop.jpg,3,20,1.0,198.0,2,2858.9575,35.0,20.0,DON'T EAT                                    EAT,2858.3445,2838.178,2718.87
200,2,False,left,approach,neg,insect29_crop.jpg,3,20,1.0,199.0,2,2860.8608,35.0,20.0,DON'T EAT                                    EAT,2860.363,2838.178,2718.87
201,2,False,left,avoid,neg,fungus29_crop.jpg,3,21,1.0,200.0,1,2880.61,35.0,21.0,DON'T EAT                                    EAT,2879.5122,2875.4922,2718.87
202,2,False,left,avoid,neg,fungus2_crop.jpg,3,21,1.0,201.0,1,2882.2183,35.0,21.0,DON'T EAT                                    EAT,2881.5308,2875.4922,2718.87
203,2,False,left,avoid,neg,fungus4_crop.jpg,3,21,1.0,202.0,1,2884.1423,35.0,21.0,DON'T EAT                                    EAT,2883.5488,2875.4922,2718.87
204,2,False,left,avoid,neg,fungus27_crop.jpg,3,21,1.0,203.0,1,2886.1707,35.0,21.0,DON'T EAT                                    EAT,2885.5671,2875.4922,2718.87
205,2,True,left,approach,neg,insect37_crop.jpg,3,21,1.0,204.0,2,2888.5173,35.0,21.0,DON'T EAT                                    EAT,2887.5854,2875.4922,2718.87
206,2,False,left,avoid,neg,fungus16_crop.jpg,3,21,1.0,205.0,1,2890.331,35.0,21.0,DON'T EAT                                    EAT,2889.6038,2875.4922,2718.87
207,2,True,left,approach,pos,cake15_crop.jpg,3,21,1.0,206.0,2,2892.4663,35.0,21.0,DON'T EAT                                    EAT,2891.6223,2875.4922,2718.87
208,2,False,left,avoid,neg,fungus31_crop.jpg,3,21,1.0,207.0,1,2894.4233,35.0,21.0,DON'T EAT                                    EAT,2893.6406,2875.4922,2718.87
209,2,False,left,avoid,neg,fungus35_crop.jpg,3,21,1.0,208.0,1,2896.4543,35.0,21.0,DON'T EAT                                    EAT,2895.659,2875.4922,2718.87
210,2,False,left,avoid,neg,fungus9_crop.jpg,3,21,1.0,209.0,1,2898.3152,35.0,21.0,DON'T EAT                                    EAT,2897.6772,2875.4922,2718.87
211,0,False,right,approach,neg,insect27_crop.jpg,3,22,1.0,210.0,2,2918.8542,35.0,22.0,DON'T EAT                                    EAT,2917.427,2913.407,2718.87
212,0,False,right,approach,neg,insect10_crop.jpg,3,22,1.0,211.0,2,2919.9854,35.0,22.0,DON'T EAT                                    EAT,2919.4453,2913.407,2718.87
213,0,True,right,avoid,neg,fungus27_crop.jpg,3,22,1.0,212.0,1,2922.3274,35.0,22.0,DON'T EAT                                    EAT,2921.4636,2913.407,2718.87
214,0,False,right,approach,neg,insect3_crop.jpg,3,22,1.0,213.0,2,2924.2454,35.0,22.0,DON'T EAT                                    EAT,2923.482,2913.407,2718.87
215,0,False,right,approach,neg,insect18_crop.jpg,3,22,1.0,214.0,2,2926.1143,35.0,22.0,DON'T EAT                                    EAT,2925.5005,2913.407,2718.87
216,0,True,right,avoid,pos,meat39_crop.jpg,3,22,1.0,215.0,1,2928.3147,35.0,22.0,DON'T EAT                                    EAT,2927.5188,2913.407,2718.87
217,0,False,right,approach,neg,insect8_crop.jpg,3,22,1.0,216.0,2,2930.3494,35.0,22.0,DON'T EAT                                    EAT,2929.537,2913.407,2718.87
218,0,False,right,approach,neg,insect22_crop.jpg,3,22,1.0,217.0,2,2932.2644,35.0,22.0,DON'T EAT                                    EAT,2931.5554,2913.407,2718.87
219,0,False,right,approach,neg,insect39_crop.jpg,3,22,1.0,218.0,2,2934.0186,35.0,22.0,DON'T EAT                                    EAT,2933.5737,2913.407,2718.87
220,0,False,right,approach,neg,insect24_crop.jpg,3,22,1.0,219.0,2,2936.0137,35.0,22.0,DON'T EAT                                    EAT,2935.5916,2913.407,2718.87
221,3,False,right,avoid,neg,fungus12_crop.jpg,3,23,1.0,220.0,1,2954.8457,35.0,23.0,DON'T EAT                                    EAT,2954.0408,2950.0205,2718.87
222,3,False,right,avoid,neg,fungus9_crop.jpg,3,23,1.0,221.0,1,2956.609,35.0,23.0,DON'T EAT                                    EAT,2956.0588,2950.0205,2718.87
223,3,False,right,avoid,neg,fungus20_crop.jpg,3,23,1.0,222.0,1,2958.9553,35.0,23.0,DON'T EAT                                    EAT,2958.0771,2950.0205,2718.87
224,3,True,right,approach,pos,cake13_crop.jpg,3,23,1.0,223.0,2,2960.9631,35.0,23.0,DON'T EAT                                    EAT,2960.096,2950.0205,2718.87
225,3,True,right,approach,neg,insect29_crop.jpg,3,23,1.0,224.0,2,2963.1929,35.0,23.0,DON'T EAT                                    EAT,2962.114,2950.0205,2718.87
226,3,False,right,avoid,neg,fungus3_crop.jpg,3,23,1.0,225.0,1,2964.8108,35.0,23.0,DON'T EAT                                    EAT,2964.1323,2950.0205,2718.87
227,3,False,right,avoid,neg,fungus36_crop.jpg,3,23,1.0,226.0,1,2966.7314,35.0,23.0,DON'T EAT                                    EAT,2966.151,2950.0205,2718.87
228,3,False,right,avoid,neg,fungus18_crop.jpg,3,23,1.0,227.0,1,2968.7747,35.0,23.0,DON'T EAT                                    EAT,2968.169,2950.0205,2718.87
229,3,False,right,avoid,neg,fungus14_crop.jpg,3,23,1.0,228.0,1,2970.7708,35.0,23.0,DON'T EAT                                    EAT,2970.1875,2950.0205,2718.87
230,3,False,right,avoid,neg,fungus11_crop.jpg,3,23,1.0,229.0,1,2972.9468,35.0,23.0,DON'T EAT                                    EAT,2972.2058,2950.0205,2718.87
231,1,True,right,avoid,neg,fungus31_crop.jpg,3,24,1.0,230.0,1,2991.1829,35.0,24.0,DON'T EAT                                    EAT,2990.4211,2986.401,2718.87
232,1,True,right,avoid,pos,meat21_crop.jpg,3,24,1.0,231.0,1,2993.1685,35.0,24.0,DON'T EAT                                    EAT,2992.439,2986.401,2718.87
233,1,False,right,approach,neg,insect36_crop.jpg,3,24,1.0,232.0,2,2995.3594,35.0,24.0,DON'T EAT                                    EAT,2994.4578,2986.401,2718.87
234,1,False,right,approach,neg,insect35_crop.jpg,3,24,1.0,233.0,2,2997.0679,35.0,24.0,DON'T EAT                                    EAT,2996.4758,2986.401,2718.87
235,1,False,right,approach,neg,insect31_crop.jpg,3,24,1.0,234.0,2,2999.088,35.0,24.0,DON'T EAT                                    EAT,2998.4944,2986.401,2718.87
236,1,False,right,approach,neg,insect23_crop.jpg,3,24,1.0,235.0,2,3001.191,35.0,24.0,DON'T EAT                                    EAT,3000.5127,2986.401,2718.87
237,1,False,right,approach,neg,insect12_crop.jpg,3,24,1.0,236.0,2,3003.1353,35.0,24.0,DON'T EAT                                    EAT,3002.531,2986.401,2718.87
238,1,False,right,approach,neg,insect15_crop.jpg,3,24,1.0,237.0,2,3005.1108,35.0,24.0,DON'T EAT                                    EAT,3004.549,2986.401,2718.87
239,1,False,right,approach,neg,insect9_crop.jpg,3,24,1.0,238.0,2,3007.1282,35.0,24.0,DON'T EAT                                    EAT,3006.5676,2986.401,2718.87
240,1,False,right,approach,neg,insect28_crop.jpg,3,24,1.0,239.0,2,3009.0842,35.0,24.0,DON'T EAT                                    EAT,3008.586,2986.401,2718.87
241,3,False,right,avoid,pos,meat31_crop.jpg,4,25,1.0,240.0,1,3242.3145,35.0,25.0,DON'T EAT                                    EAT,3241.3625,3237.3425,3225.4893
242,3,False,right,avoid,pos,meat24_crop.jpg,4,25,1.0,241.0,1,3244.1184,35.0,25.0,DON'T EAT                                    EAT,3243.381,3237.3425,3225.4893
243,3,False,right,avoid,pos,meat11_crop.jpg,4,25,1.0,242.0,1,3246.0498,35.0,25.0,DON'T EAT                                    EAT,3245.3994,3237.3425,3225.4893
244,3,False,right,avoid,pos,meat20_crop.jpg,4,25,1.0,243.0,1,3248.1455,35.0,25.0,DON'T EAT                                    EAT,3247.4177,3237.3425,3225.4893
245,3,False,right,avoid,pos,meat32_crop.jpg,4,25,1.0,244.0,1,3250.0793,35.0,25.0,DON'T EAT                                    EAT,3249.4363,3237.3425,3225.4893
246,3,False,right,avoid,pos,meat37_crop.jpg,4,25,1.0,245.0,1,3252.165,35.0,25.0,DON'T EAT                                    EAT,3251.4543,3237.3425,3225.4893
247,3,True,right,approach,pos,cake24_crop.jpg,4,25,1.0,246.0,1,3253.9585,35.0,25.0,DON'T EAT                                    EAT,3253.4727,3237.3425,3225.4893
248,3,False,right,avoid,pos,meat30_crop.jpg,4,25,1.0,247.0,1,3256.2627,35.0,25.0,DON'T EAT                                    EAT,3255.4912,3237.3425,3225.4893
249,3,True,right,approach,neg,insect33_crop.jpg,4,25,1.0,248.0,2,3258.3018,35.0,25.0,DON'T EAT                                    EAT,3257.5095,3237.3425,3225.4893
250,3,False,right,avoid,pos,meat15_crop.jpg,4,25,1.0,249.0,1,3260.374,35.0,25.0,DON'T EAT                                    EAT,3259.5278,3237.3425,3225.4893
251,2,False,right,approach,pos,cake26_crop.jpg,4,26,1.0,250.0,2,3279.6194,35.0,26.0,DON'T EAT                                    EAT,3278.5598,3274.54,3225.4893
252,2,False,right,approach,pos,cake35_crop.jpg,4,26,1.0,251.0,2,3281.2786,35.0,26.0,DON'T EAT                                    EAT,3280.5786,3274.54,3225.4893
253,2,False,right,approach,pos,cake31_crop.jpg,4,26,1.0,252.0,2,3283.1248,35.0,26.0,DON'T EAT                                    EAT,3282.5972,3274.54,3225.4893
254,2,False,right,approach,pos,cake19_crop.jpg,4,26,1.0,253.0,2,3285.2395,35.0,26.0,DON'T EAT                                    EAT,3284.6155,3274.54,3225.4893
255,2,False,right,approach,pos,cake2_crop.jpg,4,26,1.0,254.0,2,3287.344,35.0,26.0,DON'T EAT                                    EAT,3286.6335,3274.54,3225.4893
256,2,False,right,approach,pos,cake5_crop.jpg,4,26,1.0,255.0,2,3289.2698,35.0,26.0,DON'T EAT                                    EAT,3288.652,3274.54,3225.4893
257,2,False,right,approach,pos,cake9_crop.jpg,4,26,1.0,256.0,2,3291.2207,35.0,26.0,DON'T EAT                                    EAT,3290.6704,3274.54,3225.4893
258,2,False,right,approach,pos,cake3_crop.jpg,4,26,1.0,257.0,2,3293.1965,35.0,26.0,DON'T EAT                                    EAT,3292.6887,3274.54,3225.4893
259,2,True,right,avoid,neg,fungus24_crop.jpg,4,26,1.0,258.0,1,3295.6287,35.0,26.0,DON'T EAT                                    EAT,3294.7073,3274.54,3225.4893
260,2,True,right,avoid,pos,meat7_crop.jpg,4,26,1.0,259.0,1,3297.7856,35.0,26.0,DON'T EAT                                    EAT,3296.7253,3274.54,3225.4893
261,0,False,left,approach,pos,cake24_crop.jpg,4,27,1.0,260.0,2,3317.8716,35.0,27.0,DON'T EAT                                    EAT,3316.1748,3312.1548,3225.4893
262,0,True,left,avoid,pos,meat37_crop.jpg,4,27,1.0,261.0,1,3319.0962,35.0,27.0,DON'T EAT                                    EAT,3318.193,3312.1548,3225.4893
263,0,False,left,approach,pos,cake11_crop.jpg,4,27,1.0,262.0,2,3320.953,35.0,27.0,DON'T EAT                                    EAT,3320.2117,3312.1548,3225.4893
264,0,False,left,approach,pos,cake32_crop.jpg,4,27,1.0,263.0,2,3322.8347,35.0,27.0,DON'T EAT                                    EAT,3322.23,3312.1548,3225.4893
265,0,False,left,approach,pos,cake8_crop.jpg,4,27,1.0,264.0,2,3324.863,35.0,27.0,DON'T EAT                                    EAT,3324.2483,3312.1548,3225.4893
266,0,False,left,approach,pos,cake40_crop.jpg,4,27,1.0,265.0,2,3326.859,35.0,27.0,DON'T EAT                                    EAT,3326.2666,3312.1548,3225.4893
267,0,False,left,approach,pos,cake3_crop.jpg,4,27,1.0,266.0,2,3328.8599,35.0,27.0,DON'T EAT                                    EAT,3328.2852,3312.1548,3225.4893
268,0,False,left,approach,pos,cake28_crop.jpg,4,27,1.0,267.0,2,3330.9592,35.0,27.0,DON'T EAT                                    EAT,3330.3032,3312.1548,3225.4893
269,0,True,left,avoid,neg,fungus39_crop.jpg,4,27,1.0,268.0,1,3333.4866,35.0,27.0,DON'T EAT                                    EAT,3332.3218,3312.1548,3225.4893
270,0,False,left,approach,pos,cake31_crop.jpg,4,27,1.0,269.0,2,3335.156,35.0,27.0,DON'T EAT                                    EAT,3334.3398,3312.1548,3225.4893
271,0,False,left,avoid,pos,meat29_crop.jpg,4,28,1.0,270.0,1,3354.2727,35.0,28.0,DON'T EAT                                    EAT,3353.2556,3349.2356,3225.4893
272,0,False,left,avoid,pos,meat35_crop.jpg,4,28,1.0,271.0,1,3355.8655,35.0,28.0,DON'T EAT                                    EAT,3355.2742,3349.2356,3225.4893
273,0,False,left,avoid,pos,meat27_crop.jpg,4,28,1.0,272.0,1,3358.1487,35.0,28.0,DON'T EAT                                    EAT,3357.2925,3349.2356,3225.4893
274,0,False,left,avoid,pos,meat9_crop.jpg,4,28,1.0,273.0,1,3359.9497,35.0,28.0,DON'T EAT                                    EAT,3359.3103,3349.2356,3225.4893
275,0,False,left,avoid,pos,meat8_crop.jpg,4,28,1.0,274.0,1,3362.0059,35.0,28.0,DON'T EAT                                    EAT,3361.3289,3349.2356,3225.4893
276,0,True,left,approach,pos,cake6_crop.jpg,4,28,1.0,275.0,2,3364.0876,35.0,28.0,DON'T EAT                                    EAT,3363.3474,3349.2356,3225.4893
277,0,False,left,avoid,pos,meat40_crop.jpg,4,28,1.0,276.0,1,3366.1714,35.0,28.0,DON'T EAT                                    EAT,3365.3657,3349.2356,3225.4893
278,0,False,left,avoid,pos,meat10_crop.jpg,4,28,1.0,277.0,1,3368.0183,35.0,28.0,DON'T EAT                                    EAT,3367.384,3349.2356,3225.4893
279,0,True,left,approach,neg,insect27_crop.jpg,4,28,1.0,278.0,2,3370.284,35.0,28.0,DON'T EAT                                    EAT,3369.4023,3349.2356,3225.4893
280,0,False,left,avoid,pos,meat17_crop.jpg,4,28,1.0,279.0,1,3372.2043,35.0,28.0,DON'T EAT                                    EAT,3371.421,3349.2356,3225.4893
281,0,False,right,approach,pos,cake39_crop.jpg,4,29,1.0,280.0,2,3390.6394,35.0,29.0,DON'T EAT                                    EAT,3389.7358,3385.716,3225.4893
282,0,False,right,approach,pos,cake4_crop.jpg,4,29,1.0,281.0,2,3392.3896,35.0,29.0,DON'T EAT                                    EAT,3391.7544,3385.716,3225.4893
283,0,False,right,approach,pos,cake10_crop.jpg,4,29,1.0,282.0,2,3394.3218,35.0,29.0,DON'T EAT                                    EAT,3393.7725,3385.716,3225.4893
284,0,False,right,approach,pos,cake7_crop.jpg,4,29,1.0,283.0,2,3396.2866,35.0,29.0,DON'T EAT                                    EAT,3395.791,3385.716,3225.4893
285,0,True,right,avoid,pos,meat13_crop.jpg,4,29,1.0,284.0,1,3398.6873,35.0,29.0,DON'T EAT                                    EAT,3397.8096,3385.716,3225.4893
286,0,False,right,approach,pos,cake11_crop.jpg,4,29,1.0,285.0,2,3400.5452,35.0,29.0,DON'T EAT                                    EAT,3399.828,3385.716,3225.4893
287,0,False,right,approach,pos,cake29_crop.jpg,4,29,1.0,286.0,2,3402.3245,35.0,29.0,DON'T EAT                                    EAT,3401.8462,3385.716,3225.4893
288,0,False,right,approach,pos,cake15_crop.jpg,4,29,1.0,287.0,2,3404.4348,35.0,29.0,DON'T EAT                                    EAT,3403.8645,3385.716,3225.4893
289,0,True,right,avoid,neg,fungus29_crop.jpg,4,29,1.0,288.0,1,3406.823,35.0,29.0,DON'T EAT                                    EAT,3405.8828,3385.716,3225.4893
290,0,False,right,approach,pos,cake1_crop.jpg,4,29,1.0,289.0,2,3408.7168,35.0,29.0,DON'T EAT                                    EAT,3407.9011,3385.716,3225.4893
291,3,False,left,approach,neg,insect8_crop.jpg,4,30,1.0,290.0,2,3425.9219,35.0,30.0,DON'T EAT                                    EAT,3424.8818,3420.8618,3225.4893
292,3,True,left,avoid,neg,fungus15_crop.jpg,4,30,1.0,291.0,1,3427.674,35.0,30.0,DON'T EAT                                    EAT,3426.9,3420.8618,3225.4893
293,3,False,left,approach,neg,insect6_crop.jpg,4,30,1.0,292.0,2,3429.3855,35.0,30.0,DON'T EAT                                    EAT,3428.9185,3420.8618,3225.4893
294,3,True,left,avoid,pos,meat3_crop.jpg,4,30,1.0,293.0,1,3431.6748,35.0,30.0,DON'T EAT                                    EAT,3430.937,3420.8618,3225.4893
295,3,False,left,approach,neg,insect2_crop.jpg,4,30,1.0,294.0,2,3433.5913,35.0,30.0,DON'T EAT                                    EAT,3432.9553,3420.8618,3225.4893
296,3,False,left,approach,neg,insect30_crop.jpg,4,30,1.0,295.0,2,3435.6387,35.0,30.0,DON'T EAT                                    EAT,3434.9736,3420.8618,3225.4893
297,3,False,left,approach,neg,insect12_crop.jpg,4,30,1.0,296.0,2,3437.6145,35.0,30.0,DON'T EAT                                    EAT,3436.9922,3420.8618,3225.4893
298,3,False,left,approach,neg,insect11_crop.jpg,4,30,1.0,297.0,2,3439.496,35.0,30.0,DON'T EAT                                    EAT,3439.0103,3420.8618,3225.4893
299,3,False,left,approach,neg,insect25_crop.jpg,4,30,1.0,298.0,2,3441.6653,35.0,30.0,DON'T EAT                                    EAT,3441.0288,3420.8618,3225.4893
300,3,False,left,approach,neg,insect13_crop.jpg,4,30,1.0,299.0,2,3443.62,35.0,30.0,DON'T EAT                                    EAT,3443.047,3420.8618,3225.4893
301,3,False,left,approach,pos,cake33_crop.jpg,4,31,1.0,300.0,2,3463.839,35.0,31.0,DON'T EAT                                    EAT,3462.6133,3458.593,3225.4893
302,3,True,left,avoid,neg,fungus6_crop.jpg,4,31,1.0,301.0,1,3465.3638,35.0,31.0,DON'T EAT                                    EAT,3464.6316,3458.593,3225.4893
303,3,False,left,approach,pos,cake20_crop.jpg,4,31,1.0,302.0,2,3467.5806,35.0,31.0,DON'T EAT                                    EAT,3466.6501,3458.593,3225.4893
304,3,True,left,avoid,pos,meat24_crop.jpg,4,31,1.0,303.0,1,3469.4248,35.0,31.0,DON'T EAT                                    EAT,3468.668,3458.593,3225.4893
305,3,False,left,approach,pos,cake9_crop.jpg,4,31,1.0,304.0,2,3471.4456,35.0,31.0,DON'T EAT                                    EAT,3470.6865,3458.593,3225.4893
306,3,False,left,approach,pos,cake25_crop.jpg,4,31,1.0,305.0,2,3473.5393,35.0,31.0,DON'T EAT                                    EAT,3472.7048,3458.593,3225.4893
307,3,False,left,approach,pos,cake13_crop.jpg,4,31,1.0,306.0,2,3475.3347,35.0,31.0,DON'T EAT                                    EAT,3474.7231,3458.593,3225.4893
308,3,False,left,approach,pos,cake23_crop.jpg,4,31,1.0,307.0,2,3477.314,35.0,31.0,DON'T EAT                                    EAT,3476.7417,3458.593,3225.4893
309,3,False,left,approach,pos,cake37_crop.jpg,4,31,1.0,308.0,2,3479.3418,35.0,31.0,DON'T EAT                                    EAT,3478.7593,3458.593,3225.4893
310,3,False,left,approach,pos,cake34_crop.jpg,4,31,1.0,309.0,2,3481.615,35.0,31.0,DON'T EAT                                    EAT,3480.7783,3458.593,3225.4893
311,0,True,right,approach,neg,insect30_crop.jpg,4,32,1.0,310.0,2,3497.6316,35.0,32.0,DON'T EAT                                    EAT,3496.8582,3492.8381,3225.4893
312,0,False,right,avoid,neg,fungus17_crop.jpg,4,32,1.0,311.0,1,3499.69,35.0,32.0,DON'T EAT                                    EAT,3498.8767,3492.8381,3225.4893
313,0,False,right,avoid,neg,fungus21_crop.jpg,4,32,1.0,312.0,1,3501.5532,35.0,32.0,DON'T EAT                                    EAT,3500.895,3492.8381,3225.4893
314,0,False,right,avoid,neg,fungus1_crop.jpg,4,32,1.0,313.0,1,3503.535,35.0,32.0,DON'T EAT                                    EAT,3502.913,3492.8381,3225.4893
315,0,False,right,avoid,neg,fungus15_crop.jpg,4,32,1.0,314.0,1,3505.4915,35.0,32.0,DON'T EAT                                    EAT,3504.9316,3492.8381,3225.4893
316,0,False,right,avoid,neg,fungus5_crop.jpg,4,32,1.0,315.0,1,3507.8486,35.0,32.0,DON'T EAT                                    EAT,3506.9502,3492.8381,3225.4893
317,0,True,right,approach,pos,cake6_crop.jpg,4,32,1.0,316.0,2,3509.616,35.0,32.0,DON'T EAT                                    EAT,3508.9685,3492.8381,3225.4893
318,0,False,right,avoid,neg,fungus39_crop.jpg,4,32,1.0,317.0,1,3511.5977,35.0,32.0,DON'T EAT                                    EAT,3510.9868,3492.8381,3225.4893
319,0,False,right,avoid,neg,fungus35_crop.jpg,4,32,1.0,318.0,1,3513.5576,35.0,32.0,DON'T EAT                                    EAT,3513.0051,3492.8381,3225.4893
320,0,False,right,avoid,neg,fungus13_crop.jpg,4,32,1.0,319.0,1,3515.582,35.0,32.0,DON'T EAT                                    EAT,3515.0234,3492.8381,3225.4893
