TrialNumber,n_block,catch,hand,mot,val,stim_name,run_number,num_block,ran,order,response,RT,Subject number,n_b,left_side_resp_label,trial_onset,blk_instr_onset,baseline_onset
1,1,False,left,avoid,pos,meat39_crop.jpg,1,1,1.0,0.0,1,103.73131,35.0,1.0,DON'T EAT                                    EAT,102.73394,98.71396,87.453156
2,1,False,left,avoid,pos,meat19_crop.jpg,1,1,1.0,1.0,1,105.38572,35.0,1.0,DON'T EAT                                    EAT,104.75232,98.71396,87.453156
3,1,True,left,approach,neg,insect9_crop.jpg,1,1,1.0,2.0,2,107.584755,35.0,1.0,DON'T EAT                                    EAT,106.7704,98.71396,87.453156
4,1,False,left,avoid,pos,meat13_crop.jpg,1,1,1.0,3.0,1,109.539505,35.0,1.0,DON'T EAT                                    EAT,108.78899,98.71396,87.453156
5,1,False,left,avoid,pos,meat21_crop.jpg,1,1,1.0,4.0,1,111.37653,35.0,1.0,DON'T EAT                                    EAT,110.806984,98.71396,87.453156
6,1,True,left,approach,pos,cake11_crop.jpg,1,1,1.0,5.0,2,113.67779,35.0,1.0,DON'T EAT                                    EAT,112.832535,98.71396,87.453156
7,1,False,left,avoid,pos,meat35_crop.jpg,1,1,1.0,6.0,1,115.591225,35.0,1.0,DON'T EAT                                    EAT,114.84782,98.71396,87.453156
8,1,False,left,avoid,pos,meat36_crop.jpg,1,1,1.0,7.0,1,117.38086,35.0,1.0,DON'T EAT                                    EAT,116.86243,98.71396,87.453156
9,1,False,left,avoid,pos,meat30_crop.jpg,1,1,1.0,8.0,1,119.58034,35.0,1.0,DON'T EAT                                    EAT,118.88097,98.71396,87.453156
10,1,False,left,avoid,pos,meat11_crop.jpg,1,1,1.0,9.0,1,121.576324,35.0,1.0,DON'T EAT                                    EAT,120.89862,98.71396,87.453156
11,2,False,left,avoid,neg,fungus17_crop.jpg,1,2,1.0,10.0,1,139.49854,35.0,2.0,DON'T EAT                                    EAT,138.63055,134.61049,87.453156
12,2,True,left,approach,pos,cake24_crop.jpg,1,2,1.0,11.0,2,141.4236,35.0,2.0,DON'T EAT                                    EAT,140.64874,134.61049,87.453156
13,2,False,left,avoid,neg,fungus37_crop.jpg,1,2,1.0,12.0,1,143.50052,35.0,2.0,DON'T EAT                                    EAT,142.66692,134.61049,87.453156
14,2,True,left,approach,neg,insect27_crop.jpg,1,2,1.0,13.0,2,145.38188,35.0,2.0,DON'T EAT                                    EAT,144.68556,134.61049,87.453156
15,2,False,left,avoid,neg,fungus6_crop.jpg,1,2,1.0,14.0,1,147.29832,35.0,2.0,DON'T EAT                                    EAT,146.70354,134.61049,87.453156
16,2,False,left,avoid,neg,fungus8_crop.jpg,1,2,1.0,15.0,1,149.34505,35.0,2.0,DON'T EAT                                    EAT,148.72209,134.61049,87.453156
17,2,False,left,avoid,neg,fungus15_crop.jpg,1,2,1.0,16.0,1,151.22034,35.0,2.0,DON'T EAT                                    EAT,150.74062,134.61049,87.453156
18,2,False,left,avoid,neg,fungus29_crop.jpg,1,2,1.0,17.0,1,153.50128,35.0,2.0,DON'T EAT                                    EAT,152.75879,134.61049,87.453156
19,2,False,left,avoid,neg,fungus25_crop.jpg,1,2,1.0,18.0,1,155.35983,35.0,2.0,DON'T EAT                                    EAT,154.77731,134.61049,87.453156
20,2,False,left,avoid,neg,fungus5_crop.jpg,1,2,1.0,19.0,1,157.43896,35.0,2.0,DON'T EAT                                    EAT,156.79527,134.61049,87.453156
21,3,False,right,avoid,neg,fungus8_crop.jpg,1,3,1.0,20.0,1,176.97664,35.0,3.0,DON'T EAT                                    EAT,176.24506,172.22475,87.453156
22,3,False,right,avoid,neg,fungus31_crop.jpg,1,3,1.0,21.0,1,178.82402,35.0,3.0,DON'T EAT                                    EAT,178.26343,172.22475,87.453156
23,3,False,right,avoid,neg,fungus14_crop.jpg,1,3,1.0,22.0,1,180.88867,35.0,3.0,DON'T EAT                                    EAT,180.28163,172.22475,87.453156
24,3,True,right,approach,neg,insect14_crop.jpg,1,3,1.0,23.0,2,183.14467,35.0,3.0,DON'T EAT                                    EAT,182.30011,172.22475,87.453156
25,3,False,right,avoid,neg,fungus24_crop.jpg,1,3,1.0,24.0,1,185.10014,35.0,3.0,DON'T EAT                                    EAT,184.31842,172.22475,87.453156
26,3,False,right,avoid,neg,fungus23_crop.jpg,1,3,1.0,25.0,1,186.89845,35.0,3.0,DON'T EAT                                    EAT,186.33687,172.22475,87.453156
27,3,False,right,avoid,neg,fungus38_crop.jpg,1,3,1.0,26.0,1,189.45682,35.0,3.0,DON'T EAT                                    EAT,188.3551,172.22475,87.453156
28,3,False,right,avoid,neg,fungus16_crop.jpg,1,3,1.0,27.0,1,191.26633,35.0,3.0,DON'T EAT                                    EAT,190.37355,172.22475,87.453156
29,3,False,right,avoid,neg,fungus25_crop.jpg,1,3,1.0,28.0,1,193.07968,35.0,3.0,DON'T EAT                                    EAT,192.3917,172.22475,87.453156
30,3,True,right,approach,pos,cake37_crop.jpg,1,3,1.0,29.0,2,195.50185,35.0,3.0,DON'T EAT                                    EAT,194.4101,172.22475,87.453156
31,2,True,left,avoid,pos,meat1_crop.jpg,1,4,1.0,30.0,1,213.50705,35.0,4.0,DON'T EAT                                    EAT,212.64189,208.62192,87.453156
32,2,False,left,approach,neg,insect19_crop.jpg,1,4,1.0,31.0,2,215.39081,35.0,4.0,DON'T EAT                                    EAT,214.66049,208.62192,87.453156
33,2,False,left,approach,neg,insect37_crop.jpg,1,4,1.0,32.0,2,217.46268,35.0,4.0,DON'T EAT                                    EAT,216.67833,208.62192,87.453156
34,2,False,left,approach,neg,insect32_crop.jpg,1,4,1.0,33.0,2,219.29013,35.0,4.0,DON'T EAT                                    EAT,218.69705,208.62192,87.453156
35,2,False,left,approach,neg,insect25_crop.jpg,1,4,1.0,34.0,2,221.17195,35.0,4.0,DON'T EAT                                    EAT,220.71538,208.62192,87.453156
36,2,True,left,avoid,neg,fungus34_crop.jpg,1,4,1.0,35.0,1,223.45653,35.0,4.0,DON'T EAT                                    EAT,222.73318,208.62192,87.453156
37,2,False,left,approach,neg,insect35_crop.jpg,1,4,1.0,36.0,2,225.43806,35.0,4.0,DON'T EAT                                    EAT,224.75194,208.62192,87.453156
38,2,False,left,approach,neg,insect8_crop.jpg,1,4,1.0,37.0,2,227.6031,35.0,4.0,DON'T EAT                                    EAT,226.77037,208.62192,87.453156
39,2,False,left,approach,neg,insect1_crop.jpg,1,4,1.0,38.0,2,229.5276,35.0,4.0,DON'T EAT                                    EAT,228.78873,208.62192,87.453156
40,2,False,left,approach,neg,insect36_crop.jpg,1,4,1.0,39.0,2,231.63773,35.0,4.0,DON'T EAT                                    EAT,230.80708,208.62192,87.453156
41,3,False,left,approach,pos,cake31_crop.jpg,1,5,1.0,40.0,2,248.75299,35.0,5.0,DON'T EAT                                    EAT,247.90459,243.88461,87.453156
42,3,False,left,approach,pos,cake36_crop.jpg,1,5,1.0,41.0,2,250.44225,35.0,5.0,DON'T EAT                                    EAT,249.92296,243.88461,87.453156
43,3,False,left,approach,pos,cake28_crop.jpg,1,5,1.0,42.0,2,252.4048,35.0,5.0,DON'T EAT                                    EAT,251.94101,243.88461,87.453156
44,3,True,left,avoid,pos,meat24_crop.jpg,1,5,1.0,43.0,1,254.79834,35.0,5.0,DON'T EAT                                    EAT,253.95973,243.88461,87.453156
45,3,False,left,approach,pos,cake4_crop.jpg,1,5,1.0,44.0,2,256.75082,35.0,5.0,DON'T EAT                                    EAT,255.9777,243.88461,87.453156
46,3,False,left,approach,pos,cake3_crop.jpg,1,5,1.0,45.0,2,258.55963,35.0,5.0,DON'T EAT                                    EAT,257.99646,243.88461,87.453156
47,3,False,left,approach,pos,cake33_crop.jpg,1,5,1.0,46.0,2,260.6082,35.0,5.0,DON'T EAT                                    EAT,260.01465,243.88461,87.453156
48,3,False,left,approach,pos,cake16_crop.jpg,1,5,1.0,47.0,2,262.53094,35.0,5.0,DON'T EAT                                    EAT,262.03287,243.88461,87.453156
49,3,False,left,approach,pos,cake29_crop.jpg,1,5,1.0,48.0,2,264.55786,35.0,5.0,DON'T EAT                                    EAT,264.05096,243.88461,87.453156
50,3,True,left,avoid,neg,fungus31_crop.jpg,1,5,1.0,49.0,2,266.64386,35.0,5.0,DON'T EAT                                    EAT,266.06973,243.88461,87.453156
51,3,True,right,avoid,neg,fungus15_crop.jpg,1,6,1.0,50.0,1,286.42834,35.0,6.0,DON'T EAT                                    EAT,285.25217,281.23196,87.453156
52,3,False,right,approach,neg,insect3_crop.jpg,1,6,1.0,51.0,2,288.15967,35.0,6.0,DON'T EAT                                    EAT,287.27063,281.23196,87.453156
53,3,True,right,avoid,pos,meat37_crop.jpg,1,6,1.0,52.0,1,290.05304,35.0,6.0,DON'T EAT                                    EAT,289.2889,281.23196,87.453156
54,3,False,right,approach,neg,insect18_crop.jpg,1,6,1.0,53.0,2,292.0935,35.0,6.0,DON'T EAT                                    EAT,291.30746,281.23196,87.453156
55,3,False,right,approach,neg,insect22_crop.jpg,1,6,1.0,54.0,2,293.9263,35.0,6.0,DON'T EAT                                    EAT,293.3256,281.23196,87.453156
56,3,False,right,approach,neg,insect23_crop.jpg,1,6,1.0,55.0,2,295.84317,35.0,6.0,DON'T EAT                                    EAT,295.3439,281.23196,87.453156
57,3,False,right,approach,neg,insect15_crop.jpg,1,6,1.0,56.0,2,297.94315,35.0,6.0,DON'T EAT                                    EAT,297.36252,281.23196,87.453156
58,3,False,right,approach,neg,insect39_crop.jpg,1,6,1.0,57.0,2,300.15515,35.0,6.0,DON'T EAT                                    EAT,299.38074,281.23196,87.453156
59,3,False,right,approach,neg,insect11_crop.jpg,1,6,1.0,58.0,2,302.0037,35.0,6.0,DON'T EAT                                    EAT,301.39883,281.23196,87.453156
60,3,False,right,approach,neg,insect21_crop.jpg,1,6,1.0,59.0,2,303.99005,35.0,6.0,DON'T EAT                                    EAT,303.41745,281.23196,87.453156
61,1,False,left,approach,pos,cake27_crop.jpg,1,7,1.0,60.0,2,321.29776,35.0,7.0,DON'T EAT                                    EAT,320.29807,316.27814,87.453156
62,1,True,left,avoid,pos,meat10_crop.jpg,1,7,1.0,61.0,1,323.0368,35.0,7.0,DON'T EAT                                    EAT,322.31638,316.27814,87.453156
63,1,False,left,approach,pos,cake39_crop.jpg,1,7,1.0,62.0,2,325.05634,35.0,7.0,DON'T EAT                                    EAT,324.33484,316.27814,87.453156
64,1,True,left,avoid,neg,fungus20_crop.jpg,1,7,1.0,63.0,1,327.2402,35.0,7.0,DON'T EAT                                    EAT,326.3531,316.27814,87.453156
65,1,False,left,approach,pos,cake34_crop.jpg,1,7,1.0,64.0,2,329.15216,35.0,7.0,DON'T EAT                                    EAT,328.3711,316.27814,87.453156
66,1,False,left,approach,pos,cake9_crop.jpg,1,7,1.0,65.0,2,331.27228,35.0,7.0,DON'T EAT                                    EAT,330.38974,316.27814,87.453156
67,1,False,left,approach,pos,cake19_crop.jpg,1,7,1.0,66.0,2,333.0302,35.0,7.0,DON'T EAT                                    EAT,332.4081,316.27814,87.453156
68,1,False,left,approach,pos,cake7_crop.jpg,1,7,1.0,67.0,2,334.94437,35.0,7.0,DON'T EAT                                    EAT,334.42657,316.27814,87.453156
69,1,False,left,approach,pos,cake1_crop.jpg,1,7,1.0,68.0,2,337.25076,35.0,7.0,DON'T EAT                                    EAT,336.44476,316.27814,87.453156
70,1,False,left,approach,pos,cake40_crop.jpg,1,7,1.0,69.0,2,339.49246,35.0,7.0,DON'T EAT                                    EAT,338.4631,316.27814,87.453156
71,3,False,left,avoid,pos,meat6_crop.jpg,1,8,1.0,70.0,1,358.6422,35.0,8.0,DON'T EAT                                    EAT,357.76257,353.74234,87.453156
72,3,False,left,avoid,pos,meat12_crop.jpg,1,8,1.0,71.0,1,360.28983,35.0,8.0,DON'T EAT                                    EAT,359.78094,353.74234,87.453156
73,3,False,left,avoid,pos,meat26_crop.jpg,1,8,1.0,72.0,1,362.2778,35.0,8.0,DON'T EAT                                    EAT,361.79892,353.74234,87.453156
74,3,True,left,approach,pos,cake23_crop.jpg,1,8,1.0,73.0,2,364.64392,35.0,8.0,DON'T EAT                                    EAT,363.81757,353.74234,87.453156
75,3,False,left,avoid,pos,meat29_crop.jpg,1,8,1.0,74.0,1,366.55313,35.0,8.0,DON'T EAT                                    EAT,365.83588,353.74234,87.453156
76,3,False,left,avoid,pos,meat34_crop.jpg,1,8,1.0,75.0,1,368.4687,35.0,8.0,DON'T EAT                                    EAT,367.85422,353.74234,87.453156
77,3,True,left,approach,neg,insect15_crop.jpg,1,8,1.0,76.0,2,370.54794,35.0,8.0,DON'T EAT                                    EAT,369.87253,353.74234,87.453156
78,3,False,left,avoid,pos,meat27_crop.jpg,1,8,1.0,77.0,1,372.67493,35.0,8.0,DON'T EAT                                    EAT,371.8909,353.74234,87.453156
79,3,False,left,avoid,pos,meat40_crop.jpg,1,8,1.0,78.0,1,374.50034,35.0,8.0,DON'T EAT                                    EAT,373.90924,353.74234,87.453156
80,3,False,left,avoid,pos,meat38_crop.jpg,1,8,1.0,79.0,1,376.47113,35.0,8.0,DON'T EAT                                    EAT,375.92743,353.74234,87.453156
81,1,True,right,approach,neg,insect34_crop.jpg,2,9,1.0,80.0,1,473.04654,35.0,9.0,DON'T EAT                                    EAT,472.27426,468.254,457.67044
82,1,False,right,avoid,neg,fungus7_crop.jpg,2,9,1.0,81.0,1,474.90472,35.0,9.0,DON'T EAT                                    EAT,474.29272,468.254,457.67044
83,1,False,right,avoid,neg,fungus30_crop.jpg,2,9,1.0,82.0,1,476.74417,35.0,9.0,DON'T EAT                                    EAT,476.31088,468.254,457.67044
84,1,False,right,avoid,neg,fungus39_crop.jpg,2,9,1.0,83.0,1,478.80368,35.0,9.0,DON'T EAT                                    EAT,478.3293,468.254,457.67044
85,1,False,right,avoid,neg,fungus1_crop.jpg,2,9,1.0,84.0,1,480.87735,35.0,9.0,DON'T EAT                                    EAT,480.3475,468.254,457.67044
86,1,False,right,avoid,neg,fungus19_crop.jpg,2,9,1.0,85.0,1,482.91647,35.0,9.0,DON'T EAT                                    EAT,482.36612,468.254,457.67044
87,1,False,right,avoid,neg,fungus20_crop.jpg,2,9,1.0,86.0,1,484.87128,35.0,9.0,DON'T EAT                                    EAT,484.38434,468.254,457.67044
88,1,False,right,avoid,neg,fungus37_crop.jpg,2,9,1.0,87.0,1,486.94284,35.0,9.0,DON'T EAT                                    EAT,486.40244,468.254,457.67044
89,1,True,right,approach,pos,cake4_crop.jpg,2,9,1.0,88.0,1,488.9716,35.0,9.0,DON'T EAT                                    EAT,488.42096,468.254,457.67044
90,1,False,right,avoid,neg,fungus12_crop.jpg,2,9,1.0,89.0,1,490.84012,35.0,9.0,DON'T EAT                                    EAT,490.4394,468.254,457.67044
91,0,False,right,avoid,pos,meat6_crop.jpg,2,10,1.0,90.0,1,508.3809,35.0,10.0,DON'T EAT                                    EAT,507.8206,503.80054,457.67044
92,0,False,right,avoid,pos,meat1_crop.jpg,2,10,1.0,91.0,1,510.4412,35.0,10.0,DON'T EAT                                    EAT,509.83878,503.80054,457.67044
93,0,False,right,avoid,pos,meat7_crop.jpg,2,10,1.0,92.0,1,512.2593,35.0,10.0,DON'T EAT                                    EAT,511.85724,503.80054,457.67044
94,0,False,right,avoid,pos,meat23_crop.jpg,2,10,1.0,93.0,1,514.203,35.0,10.0,DON'T EAT                                    EAT,513.8756,503.80054,457.67044
95,0,True,right,approach,neg,insect28_crop.jpg,2,10,1.0,94.0,1,516.29626,35.0,10.0,DON'T EAT                                    EAT,515.8936,503.80054,457.67044
96,0,False,right,avoid,pos,meat4_crop.jpg,2,10,1.0,95.0,1,518.5364,35.0,10.0,DON'T EAT                                    EAT,517.9121,503.80054,457.67044
97,0,True,right,approach,pos,cake33_crop.jpg,2,10,1.0,96.0,1,520.44476,35.0,10.0,DON'T EAT                                    EAT,519.93054,503.80054,457.67044
98,0,False,right,avoid,pos,meat20_crop.jpg,2,10,1.0,97.0,1,522.39215,35.0,10.0,DON'T EAT                                    EAT,521.9488,503.80054,457.67044
99,0,False,right,avoid,pos,meat31_crop.jpg,2,10,1.0,98.0,1,524.4223,35.0,10.0,DON'T EAT                                    EAT,523.9672,503.80054,457.67044
100,0,False,right,avoid,pos,meat5_crop.jpg,2,10,1.0,99.0,1,526.5268,35.0,10.0,DON'T EAT                                    EAT,525.9856,503.80054,457.67044
101,2,True,right,avoid,pos,meat35_crop.jpg,2,11,1.0,100.0,1,544.2117,35.0,11.0,DON'T EAT                                    EAT,543.6836,539.6636,457.67044
102,2,False,right,approach,pos,cake11_crop.jpg,2,11,1.0,101.0,1,546.07166,35.0,11.0,DON'T EAT                                    EAT,545.70184,539.6636,457.67044
103,2,False,right,approach,pos,cake29_crop.jpg,2,11,1.0,102.0,--,--,35.0,11.0,DON'T EAT                                    EAT,547.72034,539.6636,457.67044
104,2,True,right,avoid,neg,fungus13_crop.jpg,2,11,1.0,103.0,--,--,35.0,11.0,DON'T EAT                                    EAT,549.7385,539.6636,457.67044
105,2,False,right,approach,pos,cake30_crop.jpg,2,11,1.0,104.0,--,--,35.0,11.0,DON'T EAT                                    EAT,551.757,539.6636,457.67044
106,2,False,right,approach,pos,cake7_crop.jpg,2,11,1.0,105.0,--,--,35.0,11.0,DON'T EAT                                    EAT,553.7754,539.6636,457.67044
107,2,False,right,approach,pos,cake2_crop.jpg,2,11,1.0,106.0,--,--,35.0,11.0,DON'T EAT                                    EAT,555.79364,539.6636,457.67044
108,2,False,right,approach,pos,cake31_crop.jpg,2,11,1.0,107.0,--,--,35.0,11.0,DON'T EAT                                    EAT,557.81195,539.6636,457.67044
109,2,False,right,approach,pos,cake32_crop.jpg,2,11,1.0,108.0,--,--,35.0,11.0,DON'T EAT                                    EAT,559.8303,539.6636,457.67044
110,2,False,right,approach,pos,cake20_crop.jpg,2,11,1.0,109.0,--,--,35.0,11.0,DON'T EAT                                    EAT,561.84875,539.6636,457.67044
111,0,False,right,approach,pos,cake19_crop.jpg,2,12,1.0,110.0,--,--,35.0,12.0,DON'T EAT                                    EAT,579.8636,575.84344,457.67044
112,0,True,right,avoid,neg,fungus26_crop.jpg,2,12,1.0,111.0,--,--,35.0,12.0,DON'T EAT                                    EAT,581.8819,575.84344,457.67044
113,0,False,right,approach,pos,cake3_crop.jpg,2,12,1.0,112.0,--,--,35.0,12.0,DON'T EAT                                    EAT,583.9003,575.84344,457.67044
114,0,False,right,approach,pos,cake26_crop.jpg,2,12,1.0,113.0,--,--,35.0,12.0,DON'T EAT                                    EAT,585.91864,575.84344,457.67044
115,0,True,right,avoid,pos,meat26_crop.jpg,2,12,1.0,114.0,--,--,35.0,12.0,DON'T EAT                                    EAT,587.93713,575.84344,457.67044
116,0,False,right,approach,pos,cake22_crop.jpg,2,12,1.0,115.0,--,--,35.0,12.0,DON'T EAT                                    EAT,589.9552,575.84344,457.67044
117,0,False,right,approach,pos,cake34_crop.jpg,2,12,1.0,116.0,--,--,35.0,12.0,DON'T EAT                                    EAT,591.9737,575.84344,457.67044
118,0,False,right,approach,pos,cake18_crop.jpg,2,12,1.0,117.0,--,--,35.0,12.0,DON'T EAT                                    EAT,593.99194,575.84344,457.67044
119,0,False,right,approach,pos,cake24_crop.jpg,2,12,1.0,118.0,--,--,35.0,12.0,DON'T EAT                                    EAT,596.01044,575.84344,457.67044
120,0,False,right,approach,pos,cake12_crop.jpg,2,12,1.0,119.0,--,--,35.0,12.0,DON'T EAT                                    EAT,598.0287,575.84344,457.67044
121,3,False,right,approach,pos,cake14_crop.jpg,2,13,1.0,120.0,--,--,35.0,13.0,DON'T EAT                                    EAT,614.6259,610.6056,457.67044
122,3,False,right,approach,pos,cake39_crop.jpg,2,13,1.0,121.0,--,--,35.0,13.0,DON'T EAT                                    EAT,616.64435,610.6056,457.67044
123,3,True,right,avoid,neg,fungus2_crop.jpg,2,13,1.0,122.0,--,--,35.0,13.0,DON'T EAT                                    EAT,618.6625,610.6056,457.67044
124,3,False,right,approach,pos,cake8_crop.jpg,2,13,1.0,123.0,--,--,35.0,13.0,DON'T EAT                                    EAT,620.68097,610.6056,457.67044
125,3,True,right,avoid,pos,meat15_crop.jpg,2,13,1.0,124.0,--,--,35.0,13.0,DON'T EAT                                    EAT,622.69904,610.6056,457.67044
126,3,False,right,approach,pos,cake38_crop.jpg,2,13,1.0,125.0,--,--,35.0,13.0,DON'T EAT                                    EAT,624.7174,610.6056,457.67044
127,3,False,right,approach,pos,cake5_crop.jpg,2,13,1.0,126.0,--,--,35.0,13.0,DON'T EAT                                    EAT,626.736,610.6056,457.67044
128,3,False,right,approach,pos,cake25_crop.jpg,2,13,1.0,127.0,--,--,35.0,13.0,DON'T EAT                                    EAT,628.7543,610.6056,457.67044
129,3,False,right,approach,pos,cake35_crop.jpg,2,13,1.0,128.0,--,--,35.0,13.0,DON'T EAT                                    EAT,630.7725,610.6056,457.67044
130,3,False,right,approach,pos,cake40_crop.jpg,2,13,1.0,129.0,--,--,35.0,13.0,DON'T EAT                                    EAT,632.79095,610.6056,457.67044
131,1,False,right,approach,pos,cake36_crop.jpg,2,14,1.0,130.0,--,--,35.0,14.0,DON'T EAT                                    EAT,650.8225,646.8025,457.67044
132,1,False,right,approach,pos,cake21_crop.jpg,2,14,1.0,131.0,--,--,35.0,14.0,DON'T EAT                                    EAT,652.84106,646.8025,457.67044
133,1,False,right,approach,pos,cake16_crop.jpg,2,14,1.0,132.0,--,--,35.0,14.0,DON'T EAT                                    EAT,654.8593,646.8025,457.67044
134,1,False,right,approach,pos,cake17_crop.jpg,2,14,1.0,133.0,--,--,35.0,14.0,DON'T EAT                                    EAT,656.87756,646.8025,457.67044
135,1,False,right,approach,pos,cake1_crop.jpg,2,14,1.0,134.0,--,--,35.0,14.0,DON'T EAT                                    EAT,658.89606,646.8025,457.67044
136,1,True,right,avoid,pos,meat2_crop.jpg,2,14,1.0,135.0,--,--,35.0,14.0,DON'T EAT                                    EAT,660.9145,646.8025,457.67044
137,1,False,right,approach,pos,cake10_crop.jpg,2,14,1.0,136.0,--,--,35.0,14.0,DON'T EAT                                    EAT,662.9327,646.8025,457.67044
138,1,True,right,avoid,neg,fungus28_crop.jpg,2,14,1.0,137.0,--,--,35.0,14.0,DON'T EAT                                    EAT,664.9509,646.8025,457.67044
139,1,False,right,approach,pos,cake27_crop.jpg,2,14,1.0,138.0,--,--,35.0,14.0,DON'T EAT                                    EAT,666.9694,646.8025,457.67044
140,1,False,right,approach,pos,cake28_crop.jpg,2,14,1.0,139.0,--,--,35.0,14.0,DON'T EAT                                    EAT,668.9874,646.8025,457.67044
141,1,False,left,avoid,neg,fungus33_crop.jpg,2,15,1.0,140.0,--,--,35.0,15.0,DON'T EAT                                    EAT,686.6357,682.6155,457.67044
142,1,True,left,approach,neg,insect29_crop.jpg,2,15,1.0,141.0,--,--,35.0,15.0,DON'T EAT                                    EAT,688.654,682.6155,457.67044
143,1,False,left,avoid,neg,fungus16_crop.jpg,2,15,1.0,142.0,--,--,35.0,15.0,DON'T EAT                                    EAT,690.67236,682.6155,457.67044
144,1,False,left,avoid,neg,fungus9_crop.jpg,2,15,1.0,143.0,--,--,35.0,15.0,DON'T EAT                                    EAT,692.6908,682.6155,457.67044
145,1,False,left,avoid,neg,fungus39_crop.jpg,2,15,1.0,144.0,--,--,35.0,15.0,DON'T EAT                                    EAT,694.7091,682.6155,457.67044
146,1,True,left,approach,pos,cake12_crop.jpg,2,15,1.0,145.0,--,--,35.0,15.0,DON'T EAT                                    EAT,696.7272,682.6155,457.67044
147,1,False,left,avoid,neg,fungus7_crop.jpg,2,15,1.0,146.0,--,--,35.0,15.0,DON'T EAT                                    EAT,698.7459,682.6155,457.67044
148,1,False,left,avoid,neg,fungus18_crop.jpg,2,15,1.0,147.0,--,--,35.0,15.0,DON'T EAT                                    EAT,700.76404,682.6155,457.67044
149,1,False,left,avoid,neg,fungus26_crop.jpg,2,15,1.0,148.0,--,--,35.0,15.0,DON'T EAT                                    EAT,702.78217,682.6155,457.67044
150,1,False,left,avoid,neg,fungus40_crop.jpg,2,15,1.0,149.0,--,--,35.0,15.0,DON'T EAT                                    EAT,704.8008,682.6155,457.67044
151,2,False,left,avoid,pos,meat2_crop.jpg,2,16,1.0,150.0,--,--,35.0,16.0,DON'T EAT                                    EAT,724.45056,720.4305,457.67044
152,2,False,left,avoid,pos,meat3_crop.jpg,2,16,1.0,151.0,--,--,35.0,16.0,DON'T EAT                                    EAT,726.4688,720.4305,457.67044
153,2,False,left,avoid,pos,meat31_crop.jpg,2,16,1.0,152.0,--,--,35.0,16.0,DON'T EAT                                    EAT,728.4872,720.4305,457.67044
154,2,True,left,approach,pos,cake25_crop.jpg,2,16,1.0,153.0,--,--,35.0,16.0,DON'T EAT                                    EAT,730.5055,720.4305,457.67044
155,2,False,left,avoid,pos,meat28_crop.jpg,2,16,1.0,154.0,--,--,35.0,16.0,DON'T EAT                                    EAT,732.52374,720.4305,457.67044
156,2,True,left,approach,neg,insect28_crop.jpg,2,16,1.0,155.0,--,--,35.0,16.0,DON'T EAT                                    EAT,734.5421,720.4305,457.67044
157,2,False,left,avoid,pos,meat8_crop.jpg,2,16,1.0,156.0,--,--,35.0,16.0,DON'T EAT                                    EAT,736.5606,720.4305,457.67044
158,2,False,left,avoid,pos,meat32_crop.jpg,2,16,1.0,157.0,--,--,35.0,16.0,DON'T EAT                                    EAT,738.57886,720.4305,457.67044
159,2,False,left,avoid,pos,meat5_crop.jpg,2,16,1.0,158.0,--,--,35.0,16.0,DON'T EAT                                    EAT,740.5972,720.4305,457.67044
160,2,False,left,avoid,pos,meat20_crop.jpg,2,16,1.0,159.0,--,--,35.0,16.0,DON'T EAT                                    EAT,742.6156,720.4305,457.67044
161,0,False,right,avoid,neg,fungus29_crop.jpg,3,17,1.0,160.0,--,--,35.0,17.0,DON'T EAT                                    EAT,835.9764,831.9561,820.95056
162,0,True,right,approach,pos,cake15_crop.jpg,3,17,1.0,161.0,--,--,35.0,17.0,DON'T EAT                                    EAT,837.9948,831.9561,820.95056
163,0,False,right,avoid,neg,fungus36_crop.jpg,3,17,1.0,162.0,--,--,35.0,17.0,DON'T EAT                                    EAT,840.0131,831.9561,820.95056
164,0,False,right,avoid,neg,fungus18_crop.jpg,3,17,1.0,163.0,--,--,35.0,17.0,DON'T EAT                                    EAT,842.0312,831.9561,820.95056
165,0,False,right,avoid,neg,fungus10_crop.jpg,3,17,1.0,164.0,--,--,35.0,17.0,DON'T EAT                                    EAT,844.04974,831.9561,820.95056
166,0,False,right,avoid,neg,fungus3_crop.jpg,3,17,1.0,165.0,--,--,35.0,17.0,DON'T EAT                                    EAT,846.0681,831.9561,820.95056
167,0,False,right,avoid,neg,fungus6_crop.jpg,3,17,1.0,166.0,--,--,35.0,17.0,DON'T EAT                                    EAT,848.08636,831.9561,820.95056
168,0,True,right,approach,neg,insect31_crop.jpg,3,17,1.0,167.0,--,--,35.0,17.0,DON'T EAT                                    EAT,850.1046,831.9561,820.95056
169,0,False,right,avoid,neg,fungus33_crop.jpg,3,17,1.0,168.0,--,--,35.0,17.0,DON'T EAT                                    EAT,852.12305,831.9561,820.95056
170,0,False,right,avoid,neg,fungus9_crop.jpg,3,17,1.0,169.0,--,--,35.0,17.0,DON'T EAT                                    EAT,854.14154,831.9561,820.95056
171,1,False,left,approach,neg,insect13_crop.jpg,3,18,1.0,170.0,--,--,35.0,18.0,DON'T EAT                                    EAT,870.47174,866.4516,820.95056
172,1,False,left,approach,neg,insect31_crop.jpg,3,18,1.0,171.0,--,--,35.0,18.0,DON'T EAT                                    EAT,872.4901,866.4516,820.95056
173,1,False,left,approach,neg,insect39_crop.jpg,3,18,1.0,172.0,--,--,35.0,18.0,DON'T EAT                                    EAT,874.50836,866.4516,820.95056
174,1,False,left,approach,neg,insect38_crop.jpg,3,18,1.0,173.0,--,--,35.0,18.0,DON'T EAT                                    EAT,876.5268,866.4516,820.95056
175,1,False,left,approach,neg,insect24_crop.jpg,3,18,1.0,174.0,--,--,35.0,18.0,DON'T EAT                                    EAT,878.5451,866.4516,820.95056
176,1,False,left,approach,neg,insect17_crop.jpg,3,18,1.0,175.0,--,--,35.0,18.0,DON'T EAT                                    EAT,880.5634,866.4516,820.95056
177,1,True,left,avoid,neg,fungus13_crop.jpg,3,18,1.0,176.0,--,--,35.0,18.0,DON'T EAT                                    EAT,882.58167,866.4516,820.95056
178,1,False,left,approach,neg,insect10_crop.jpg,3,18,1.0,177.0,--,--,35.0,18.0,DON'T EAT                                    EAT,884.6002,866.4516,820.95056
179,1,True,left,avoid,pos,meat25_crop.jpg,3,18,1.0,178.0,--,--,35.0,18.0,DON'T EAT                                    EAT,886.6184,866.4516,820.95056
180,1,False,left,approach,neg,insect40_crop.jpg,3,18,1.0,179.0,--,--,35.0,18.0,DON'T EAT                                    EAT,888.6366,866.4516,820.95056
181,3,False,left,avoid,neg,fungus12_crop.jpg,3,19,1.0,180.0,--,--,35.0,19.0,DON'T EAT                                    EAT,908.6869,904.6667,820.95056
182,3,False,left,avoid,neg,fungus22_crop.jpg,3,19,1.0,181.0,--,--,35.0,19.0,DON'T EAT                                    EAT,910.70514,904.6667,820.95056
183,3,False,left,avoid,neg,fungus1_crop.jpg,3,19,1.0,182.0,--,--,35.0,19.0,DON'T EAT                                    EAT,912.72345,904.6667,820.95056
184,3,False,left,avoid,neg,fungus4_crop.jpg,3,19,1.0,183.0,--,--,35.0,19.0,DON'T EAT                                    EAT,914.74176,904.6667,820.95056
185,3,False,left,avoid,neg,fungus14_crop.jpg,3,19,1.0,184.0,--,--,35.0,19.0,DON'T EAT                                    EAT,916.76025,904.6667,820.95056
186,3,True,left,approach,pos,cake6_crop.jpg,3,19,1.0,185.0,--,--,35.0,19.0,DON'T EAT                                    EAT,918.77844,904.6667,820.95056
187,3,True,left,approach,neg,insect2_crop.jpg,3,19,1.0,186.0,--,--,35.0,19.0,DON'T EAT                                    EAT,920.79694,904.6667,820.95056
188,3,False,left,avoid,neg,fungus10_crop.jpg,3,19,1.0,187.0,--,--,35.0,19.0,DON'T EAT                                    EAT,922.8152,904.6667,820.95056
189,3,False,left,avoid,neg,fungus21_crop.jpg,3,19,1.0,188.0,--,--,35.0,19.0,DON'T EAT                                    EAT,924.8335,904.6667,820.95056
190,3,False,left,avoid,neg,fungus2_crop.jpg,3,19,1.0,189.0,--,--,35.0,19.0,DON'T EAT                                    EAT,926.8518,904.6667,820.95056
191,1,False,right,approach,neg,insect29_crop.jpg,3,20,1.0,190.0,--,--,35.0,20.0,DON'T EAT                                    EAT,944.54987,940.5297,820.95056
192,1,False,right,approach,neg,insect5_crop.jpg,3,20,1.0,191.0,--,--,35.0,20.0,DON'T EAT                                    EAT,946.5682,940.5297,820.95056
193,1,False,right,approach,neg,insect20_crop.jpg,3,20,1.0,192.0,--,--,35.0,20.0,DON'T EAT                                    EAT,948.58636,940.5297,820.95056
194,1,False,right,approach,neg,insect24_crop.jpg,3,20,1.0,193.0,--,--,35.0,20.0,DON'T EAT                                    EAT,950.6049,940.5297,820.95056
195,1,False,right,approach,neg,insect35_crop.jpg,3,20,1.0,194.0,--,--,35.0,20.0,DON'T EAT                                    EAT,952.6232,940.5297,820.95056
196,1,False,right,approach,neg,insect1_crop.jpg,3,20,1.0,195.0,--,--,35.0,20.0,DON'T EAT                                    EAT,954.64154,940.5297,820.95056
197,1,True,right,avoid,neg,fungus40_crop.jpg,3,20,1.0,196.0,--,--,35.0,20.0,DON'T EAT                                    EAT,956.66,940.5297,820.95056
198,1,True,right,avoid,pos,meat14_crop.jpg,3,20,1.0,197.0,--,--,35.0,20.0,DON'T EAT                                    EAT,958.6783,940.5297,820.95056
199,1,False,right,approach,neg,insect6_crop.jpg,3,20,1.0,198.0,--,--,35.0,20.0,DON'T EAT                                    EAT,960.6967,940.5297,820.95056
200,1,False,right,approach,neg,insect17_crop.jpg,3,20,1.0,199.0,--,--,35.0,20.0,DON'T EAT                                    EAT,962.71515,940.5297,820.95056
201,3,True,right,approach,neg,insect4_crop.jpg,3,21,1.0,200.0,--,--,35.0,21.0,DON'T EAT                                    EAT,981.28046,977.2604,820.95056
202,3,False,right,avoid,pos,meat17_crop.jpg,3,21,1.0,201.0,--,--,35.0,21.0,DON'T EAT                                    EAT,983.2988,977.2604,820.95056
203,3,False,right,avoid,pos,meat38_crop.jpg,3,21,1.0,202.0,--,--,35.0,21.0,DON'T EAT                                    EAT,985.31726,977.2604,820.95056
204,3,False,right,avoid,pos,meat12_crop.jpg,3,21,1.0,203.0,--,--,35.0,21.0,DON'T EAT                                    EAT,987.3355,977.2604,820.95056
205,3,False,right,avoid,pos,meat24_crop.jpg,3,21,1.0,204.0,--,--,35.0,21.0,DON'T EAT                                    EAT,989.3539,977.2604,820.95056
206,3,False,right,avoid,pos,meat19_crop.jpg,3,21,1.0,205.0,--,--,35.0,21.0,DON'T EAT                                    EAT,991.37225,977.2604,820.95056
207,3,False,right,avoid,pos,meat10_crop.jpg,3,21,1.0,206.0,--,--,35.0,21.0,DON'T EAT                                    EAT,993.39056,977.2604,820.95056
208,3,False,right,avoid,pos,meat16_crop.jpg,3,21,1.0,207.0,--,--,35.0,21.0,DON'T EAT                                    EAT,995.4088,977.2604,820.95056
209,3,False,right,avoid,pos,meat29_crop.jpg,3,21,1.0,208.0,--,--,35.0,21.0,DON'T EAT                                    EAT,997.4272,977.2604,820.95056
210,3,True,right,approach,pos,cake9_crop.jpg,3,21,1.0,209.0,--,--,35.0,21.0,DON'T EAT                                    EAT,999.44556,977.2604,820.95056
211,2,False,right,approach,neg,insect12_crop.jpg,3,22,1.0,210.0,--,--,35.0,22.0,DON'T EAT                                    EAT,1018.14435,1014.12445,820.95056
212,2,False,right,approach,neg,insect7_crop.jpg,3,22,1.0,211.0,--,--,35.0,22.0,DON'T EAT                                    EAT,1020.1623,1014.12445,820.95056
213,2,False,right,approach,neg,insect40_crop.jpg,3,22,1.0,212.0,--,--,35.0,22.0,DON'T EAT                                    EAT,1022.1811,1014.12445,820.95056
214,2,True,right,avoid,pos,meat22_crop.jpg,3,22,1.0,213.0,--,--,35.0,22.0,DON'T EAT                                    EAT,1024.1995,1014.12445,820.95056
215,2,True,right,avoid,neg,fungus22_crop.jpg,3,22,1.0,214.0,--,--,35.0,22.0,DON'T EAT                                    EAT,1026.2175,1014.12445,820.95056
216,2,False,right,approach,neg,insect19_crop.jpg,3,22,1.0,215.0,--,--,35.0,22.0,DON'T EAT                                    EAT,1028.2362,1014.12445,820.95056
217,2,False,right,approach,neg,insect13_crop.jpg,3,22,1.0,216.0,--,--,35.0,22.0,DON'T EAT                                    EAT,1030.2545,1014.12445,820.95056
218,2,False,right,approach,neg,insect25_crop.jpg,3,22,1.0,217.0,--,--,35.0,22.0,DON'T EAT                                    EAT,1032.273,1014.12445,820.95056
219,2,False,right,approach,neg,insect30_crop.jpg,3,22,1.0,218.0,--,--,35.0,22.0,DON'T EAT                                    EAT,1034.2909,1014.12445,820.95056
220,2,False,right,approach,neg,insect2_crop.jpg,3,22,1.0,219.0,--,--,35.0,22.0,DON'T EAT                                    EAT,1036.3094,1014.12445,820.95056
221,0,False,left,approach,pos,cake21_crop.jpg,3,23,1.0,220.0,--,--,35.0,23.0,DON'T EAT                                    EAT,1052.9567,1048.9363,820.95056
222,0,False,left,approach,pos,cake13_crop.jpg,3,23,1.0,221.0,--,--,35.0,23.0,DON'T EAT                                    EAT,1054.9751,1048.9363,820.95056
223,0,False,left,approach,pos,cake18_crop.jpg,3,23,1.0,222.0,--,--,35.0,23.0,DON'T EAT                                    EAT,1056.9933,1048.9363,820.95056
224,0,False,left,approach,pos,cake17_crop.jpg,3,23,1.0,223.0,--,--,35.0,23.0,DON'T EAT                                    EAT,1059.0116,1048.9363,820.95056
225,0,False,left,approach,pos,cake8_crop.jpg,3,23,1.0,224.0,--,--,35.0,23.0,DON'T EAT                                    EAT,1061.0302,1048.9363,820.95056
226,0,False,left,approach,pos,cake5_crop.jpg,3,23,1.0,225.0,--,--,35.0,23.0,DON'T EAT                                    EAT,1063.0483,1048.9363,820.95056
227,0,True,left,avoid,neg,fungus24_crop.jpg,3,23,1.0,226.0,--,--,35.0,23.0,DON'T EAT                                    EAT,1065.0662,1048.9363,820.95056
228,0,False,left,approach,pos,cake35_crop.jpg,3,23,1.0,227.0,--,--,35.0,23.0,DON'T EAT                                    EAT,1067.0851,1048.9363,820.95056
229,0,True,left,avoid,pos,meat16_crop.jpg,3,23,1.0,228.0,--,--,35.0,23.0,DON'T EAT                                    EAT,1069.1033,1048.9363,820.95056
230,0,False,left,approach,pos,cake20_crop.jpg,3,23,1.0,229.0,--,--,35.0,23.0,DON'T EAT                                    EAT,1071.1216,1048.9363,820.95056
231,3,False,left,approach,neg,insect7_crop.jpg,3,24,1.0,230.0,--,--,35.0,24.0,DON'T EAT                                    EAT,1088.5862,1084.566,820.95056
232,3,True,left,avoid,pos,meat23_crop.jpg,3,24,1.0,231.0,--,--,35.0,24.0,DON'T EAT                                    EAT,1090.6045,1084.566,820.95056
233,3,True,left,avoid,neg,fungus23_crop.jpg,3,24,1.0,232.0,--,--,35.0,24.0,DON'T EAT                                    EAT,1092.6229,1084.566,820.95056
234,3,False,left,approach,neg,insect6_crop.jpg,3,24,1.0,233.0,--,--,35.0,24.0,DON'T EAT                                    EAT,1094.6411,1084.566,820.95056
235,3,False,left,approach,neg,insect11_crop.jpg,3,24,1.0,234.0,--,--,35.0,24.0,DON'T EAT                                    EAT,1096.6597,1084.566,820.95056
236,3,False,left,approach,neg,insect34_crop.jpg,3,24,1.0,235.0,--,--,35.0,24.0,DON'T EAT                                    EAT,1098.6779,1084.566,820.95056
237,3,False,left,approach,neg,insect16_crop.jpg,3,24,1.0,236.0,--,--,35.0,24.0,DON'T EAT                                    EAT,1100.6963,1084.566,820.95056
238,3,False,left,approach,neg,insect12_crop.jpg,3,24,1.0,237.0,--,--,35.0,24.0,DON'T EAT                                    EAT,1102.7147,1084.566,820.95056
239,3,False,left,approach,neg,insect18_crop.jpg,3,24,1.0,238.0,--,--,35.0,24.0,DON'T EAT                                    EAT,1104.7329,1084.566,820.95056
240,3,False,left,approach,neg,insect21_crop.jpg,3,24,1.0,239.0,--,--,35.0,24.0,DON'T EAT                                    EAT,1106.751,1084.566,820.95056
241,0,False,left,avoid,pos,meat9_crop.jpg,4,25,1.0,240.0,--,--,35.0,25.0,DON'T EAT                                    EAT,1172.7058,1168.6862,1157.1346
242,0,False,left,avoid,pos,meat33_crop.jpg,4,25,1.0,241.0,--,--,35.0,25.0,DON'T EAT                                    EAT,1174.7245,1168.6862,1157.1346
243,0,False,left,avoid,pos,meat17_crop.jpg,4,25,1.0,242.0,--,--,35.0,25.0,DON'T EAT                                    EAT,1176.7428,1168.6862,1157.1346
244,0,True,left,approach,neg,insect26_crop.jpg,4,25,1.0,243.0,--,--,35.0,25.0,DON'T EAT                                    EAT,1178.7611,1168.6862,1157.1346
245,0,False,left,avoid,pos,meat15_crop.jpg,4,25,1.0,244.0,--,--,35.0,25.0,DON'T EAT                                    EAT,1180.7794,1168.6862,1157.1346
246,0,False,left,avoid,pos,meat14_crop.jpg,4,25,1.0,245.0,--,--,35.0,25.0,DON'T EAT                                    EAT,1182.7976,1168.6862,1157.1346
247,0,False,left,avoid,pos,meat18_crop.jpg,4,25,1.0,246.0,--,--,35.0,25.0,DON'T EAT                                    EAT,1184.8163,1168.6862,1157.1346
248,0,False,left,avoid,pos,meat22_crop.jpg,4,25,1.0,247.0,--,--,35.0,25.0,DON'T EAT                                    EAT,1186.8346,1168.6862,1157.1346
249,0,True,left,approach,pos,cake37_crop.jpg,4,25,1.0,248.0,--,--,35.0,25.0,DON'T EAT                                    EAT,1188.8528,1168.6862,1157.1346
250,0,False,left,avoid,pos,meat37_crop.jpg,4,25,1.0,249.0,--,--,35.0,25.0,DON'T EAT                                    EAT,1190.8711,1168.6862,1157.1346
251,0,False,right,approach,neg,insect33_crop.jpg,4,26,1.0,250.0,--,--,35.0,26.0,DON'T EAT                                    EAT,1209.6534,1205.6334,1157.1346
252,0,False,right,approach,neg,insect27_crop.jpg,4,26,1.0,251.0,--,--,35.0,26.0,DON'T EAT                                    EAT,1211.6718,1205.6334,1157.1346
253,0,True,right,avoid,pos,meat25_crop.jpg,4,26,1.0,252.0,--,--,35.0,26.0,DON'T EAT                                    EAT,1213.6902,1205.6334,1157.1346
254,0,True,right,avoid,neg,fungus27_crop.jpg,4,26,1.0,253.0,--,--,35.0,26.0,DON'T EAT                                    EAT,1215.7085,1205.6334,1157.1346
255,0,False,right,approach,neg,insect10_crop.jpg,4,26,1.0,254.0,--,--,35.0,26.0,DON'T EAT                                    EAT,1217.7269,1205.6334,1157.1346
256,0,False,right,approach,neg,insect16_crop.jpg,4,26,1.0,255.0,--,--,35.0,26.0,DON'T EAT                                    EAT,1219.7452,1205.6334,1157.1346
257,0,False,right,approach,neg,insect32_crop.jpg,4,26,1.0,256.0,--,--,35.0,26.0,DON'T EAT                                    EAT,1221.7635,1205.6334,1157.1346
258,0,False,right,approach,neg,insect36_crop.jpg,4,26,1.0,257.0,--,--,35.0,26.0,DON'T EAT                                    EAT,1223.7817,1205.6334,1157.1346
259,0,False,right,approach,neg,insect9_crop.jpg,4,26,1.0,258.0,--,--,35.0,26.0,DON'T EAT                                    EAT,1225.8003,1205.6334,1157.1346
260,0,False,right,approach,neg,insect38_crop.jpg,4,26,1.0,259.0,--,--,35.0,26.0,DON'T EAT                                    EAT,1227.8186,1205.6334,1157.1346
261,1,False,right,avoid,pos,meat39_crop.jpg,4,27,1.0,260.0,--,--,35.0,27.0,DON'T EAT                                    EAT,1245.9169,1241.897,1157.1346
262,1,False,right,avoid,pos,meat30_crop.jpg,4,27,1.0,261.0,--,--,35.0,27.0,DON'T EAT                                    EAT,1247.9349,1241.897,1157.1346
263,1,False,right,avoid,pos,meat27_crop.jpg,4,27,1.0,262.0,--,--,35.0,27.0,DON'T EAT                                    EAT,1249.9537,1241.897,1157.1346
264,1,False,right,avoid,pos,meat28_crop.jpg,4,27,1.0,263.0,--,--,35.0,27.0,DON'T EAT                                    EAT,1251.9719,1241.897,1157.1346
265,1,True,right,approach,pos,cake23_crop.jpg,4,27,1.0,264.0,--,--,35.0,27.0,DON'T EAT                                    EAT,1253.9904,1241.897,1157.1346
266,1,False,right,avoid,pos,meat13_crop.jpg,4,27,1.0,265.0,--,--,35.0,27.0,DON'T EAT                                    EAT,1256.0087,1241.897,1157.1346
267,1,True,right,approach,neg,insect26_crop.jpg,4,27,1.0,266.0,--,--,35.0,27.0,DON'T EAT                                    EAT,1258.027,1241.897,1157.1346
268,1,False,right,avoid,pos,meat36_crop.jpg,4,27,1.0,267.0,--,--,35.0,27.0,DON'T EAT                                    EAT,1260.0454,1241.897,1157.1346
269,1,False,right,avoid,pos,meat21_crop.jpg,4,27,1.0,268.0,--,--,35.0,27.0,DON'T EAT                                    EAT,1262.0637,1241.897,1157.1346
270,1,False,right,avoid,pos,meat33_crop.jpg,4,27,1.0,269.0,--,--,35.0,27.0,DON'T EAT                                    EAT,1264.0819,1241.897,1157.1346
271,2,False,left,approach,pos,cake15_crop.jpg,4,28,1.0,270.0,--,--,35.0,28.0,DON'T EAT                                    EAT,1282.4639,1278.444,1157.1346
272,2,True,left,avoid,pos,meat4_crop.jpg,4,28,1.0,271.0,--,--,35.0,28.0,DON'T EAT                                    EAT,1284.4822,1278.444,1157.1346
273,2,False,left,approach,pos,cake2_crop.jpg,4,28,1.0,272.0,--,--,35.0,28.0,DON'T EAT                                    EAT,1286.5006,1278.444,1157.1346
274,2,False,left,approach,pos,cake32_crop.jpg,4,28,1.0,273.0,--,--,35.0,28.0,DON'T EAT                                    EAT,1288.519,1278.444,1157.1346
275,2,False,left,approach,pos,cake38_crop.jpg,4,28,1.0,274.0,--,--,35.0,28.0,DON'T EAT                                    EAT,1290.5374,1278.444,1157.1346
276,2,False,left,approach,pos,cake30_crop.jpg,4,28,1.0,275.0,--,--,35.0,28.0,DON'T EAT                                    EAT,1292.5557,1278.444,1157.1346
277,2,False,left,approach,pos,cake10_crop.jpg,4,28,1.0,276.0,--,--,35.0,28.0,DON'T EAT                                    EAT,1294.574,1278.444,1157.1346
278,2,False,left,approach,pos,cake22_crop.jpg,4,28,1.0,277.0,--,--,35.0,28.0,DON'T EAT                                    EAT,1296.5924,1278.444,1157.1346
279,2,True,left,avoid,neg,fungus11_crop.jpg,4,28,1.0,278.0,--,--,35.0,28.0,DON'T EAT                                    EAT,1298.6107,1278.444,1157.1346
280,2,False,left,approach,pos,cake26_crop.jpg,4,28,1.0,279.0,--,--,35.0,28.0,DON'T EAT                                    EAT,1300.629,1278.444,1157.1346
281,0,False,left,approach,neg,insect23_crop.jpg,4,29,1.0,280.0,--,--,35.0,29.0,DON'T EAT                                    EAT,1319.3275,1315.3075,1157.1346
282,0,False,left,approach,neg,insect14_crop.jpg,4,29,1.0,281.0,--,--,35.0,29.0,DON'T EAT                                    EAT,1321.3462,1315.3075,1157.1346
283,0,False,left,approach,neg,insect20_crop.jpg,4,29,1.0,282.0,--,--,35.0,29.0,DON'T EAT                                    EAT,1323.3646,1315.3075,1157.1346
284,0,False,left,approach,neg,insect22_crop.jpg,4,29,1.0,283.0,--,--,35.0,29.0,DON'T EAT                                    EAT,1325.3829,1315.3075,1157.1346
285,0,True,left,avoid,pos,meat7_crop.jpg,4,29,1.0,284.0,--,--,35.0,29.0,DON'T EAT                                    EAT,1327.4014,1315.3075,1157.1346
286,0,False,left,approach,neg,insect3_crop.jpg,4,29,1.0,285.0,--,--,35.0,29.0,DON'T EAT                                    EAT,1329.4197,1315.3075,1157.1346
287,0,False,left,approach,neg,insect30_crop.jpg,4,29,1.0,286.0,--,--,35.0,29.0,DON'T EAT                                    EAT,1331.4377,1315.3075,1157.1346
288,0,True,left,avoid,neg,fungus32_crop.jpg,4,29,1.0,287.0,--,--,35.0,29.0,DON'T EAT                                    EAT,1333.4563,1315.3075,1157.1346
289,0,False,left,approach,neg,insect33_crop.jpg,4,29,1.0,288.0,--,--,35.0,29.0,DON'T EAT                                    EAT,1335.4747,1315.3075,1157.1346
290,0,False,left,approach,neg,insect5_crop.jpg,4,29,1.0,289.0,--,--,35.0,29.0,DON'T EAT                                    EAT,1337.493,1315.3075,1157.1346
291,2,False,right,avoid,pos,meat32_crop.jpg,4,30,1.0,290.0,--,--,35.0,30.0,DON'T EAT                                    EAT,1354.8407,1350.8208,1157.1346
292,2,True,right,approach,neg,insect37_crop.jpg,4,30,1.0,291.0,--,--,35.0,30.0,DON'T EAT                                    EAT,1356.8591,1350.8208,1157.1346
293,2,False,right,avoid,pos,meat9_crop.jpg,4,30,1.0,292.0,--,--,35.0,30.0,DON'T EAT                                    EAT,1358.8774,1350.8208,1157.1346
294,2,False,right,avoid,pos,meat40_crop.jpg,4,30,1.0,293.0,--,--,35.0,30.0,DON'T EAT                                    EAT,1360.8958,1350.8208,1157.1346
295,2,False,right,avoid,pos,meat3_crop.jpg,4,30,1.0,294.0,--,--,35.0,30.0,DON'T EAT                                    EAT,1362.9142,1350.8208,1157.1346
296,2,False,right,avoid,pos,meat8_crop.jpg,4,30,1.0,295.0,--,--,35.0,30.0,DON'T EAT                                    EAT,1364.9323,1350.8208,1157.1346
297,2,True,right,approach,pos,cake13_crop.jpg,4,30,1.0,296.0,--,--,35.0,30.0,DON'T EAT                                    EAT,1366.9508,1350.8208,1157.1346
298,2,False,right,avoid,pos,meat18_crop.jpg,4,30,1.0,297.0,--,--,35.0,30.0,DON'T EAT                                    EAT,1368.9692,1350.8208,1157.1346
299,2,False,right,avoid,pos,meat34_crop.jpg,4,30,1.0,298.0,--,--,35.0,30.0,DON'T EAT                                    EAT,1370.9874,1350.8208,1157.1346
300,2,False,right,avoid,pos,meat11_crop.jpg,4,30,1.0,299.0,--,--,35.0,30.0,DON'T EAT                                    EAT,1373.0059,1350.8208,1157.1346
301,2,True,right,approach,neg,insect8_crop.jpg,4,31,1.0,300.0,--,--,35.0,31.0,DON'T EAT                                    EAT,1392.3385,1388.3185,1157.1346
302,2,True,right,approach,pos,cake6_crop.jpg,4,31,1.0,301.0,1,1394.9163,35.0,31.0,DON'T EAT                                    EAT,1394.3567,1388.3185,1157.1346
303,2,False,right,avoid,neg,fungus4_crop.jpg,4,31,1.0,302.0,1,1397.0828,35.0,31.0,DON'T EAT                                    EAT,1396.3751,1388.3185,1157.1346
304,2,False,right,avoid,neg,fungus5_crop.jpg,4,31,1.0,303.0,1,1399.6222,35.0,31.0,DON'T EAT                                    EAT,1398.3936,1388.3185,1157.1346
305,2,False,right,avoid,neg,fungus34_crop.jpg,4,31,1.0,304.0,--,--,35.0,31.0,DON'T EAT                                    EAT,1400.4119,1388.3185,1157.1346
306,2,False,right,avoid,neg,fungus17_crop.jpg,4,31,1.0,305.0,--,--,35.0,31.0,DON'T EAT                                    EAT,1402.4302,1388.3185,1157.1346
307,2,False,right,avoid,neg,fungus21_crop.jpg,4,31,1.0,306.0,--,--,35.0,31.0,DON'T EAT                                    EAT,1404.4486,1388.3185,1157.1346
308,2,False,right,avoid,neg,fungus32_crop.jpg,4,31,1.0,307.0,--,--,35.0,31.0,DON'T EAT                                    EAT,1406.467,1388.3185,1157.1346
309,2,False,right,avoid,neg,fungus11_crop.jpg,4,31,1.0,308.0,--,--,35.0,31.0,DON'T EAT                                    EAT,1408.4852,1388.3185,1157.1346
310,2,False,right,avoid,neg,fungus35_crop.jpg,4,31,1.0,309.0,--,--,35.0,31.0,DON'T EAT                                    EAT,1410.5034,1388.3185,1157.1346
311,0,False,left,avoid,neg,fungus38_crop.jpg,4,32,1.0,310.0,--,--,35.0,32.0,DON'T EAT                                    EAT,1426.7172,1422.6971,1157.1346
312,0,False,left,avoid,neg,fungus19_crop.jpg,4,32,1.0,311.0,--,--,35.0,32.0,DON'T EAT                                    EAT,1428.7355,1422.6971,1157.1346
313,0,False,left,avoid,neg,fungus36_crop.jpg,4,32,1.0,312.0,--,--,35.0,32.0,DON'T EAT                                    EAT,1430.7538,1422.6971,1157.1346
314,0,True,left,approach,pos,cake14_crop.jpg,4,32,1.0,313.0,--,--,35.0,32.0,DON'T EAT                                    EAT,1432.7721,1422.6971,1157.1346
315,0,False,left,avoid,neg,fungus35_crop.jpg,4,32,1.0,314.0,--,--,35.0,32.0,DON'T EAT                                    EAT,1434.7905,1422.6971,1157.1346
316,0,False,left,avoid,neg,fungus3_crop.jpg,4,32,1.0,315.0,--,--,35.0,32.0,DON'T EAT                                    EAT,1436.8088,1422.6971,1157.1346
317,0,False,left,avoid,neg,fungus30_crop.jpg,4,32,1.0,316.0,--,--,35.0,32.0,DON'T EAT                                    EAT,1438.8273,1422.6971,1157.1346
318,0,False,left,avoid,neg,fungus27_crop.jpg,4,32,1.0,317.0,--,--,35.0,32.0,DON'T EAT                                    EAT,1440.8456,1422.6971,1157.1346
319,0,True,left,approach,neg,insect4_crop.jpg,4,32,1.0,318.0,--,--,35.0,32.0,DON'T EAT                                    EAT,1442.8639,1422.6971,1157.1346
320,0,False,left,avoid,neg,fungus28_crop.jpg,4,32,1.0,319.0,--,--,35.0,32.0,DON'T EAT                                    EAT,1444.8821,1422.6971,1157.1346
