subject,trial_number,n_block,catch,hand,mot,val,stim_name,run_number,num_block,ran,order,response,time_of_response,subject_number,left_side_resp_label,trial_onset,blk_instr_onset,baseline_onset,response_hand,response_cleaned,response_lat,response_lat_cleaned,response_meaning,response_meaning_cleaned,condition_mot,condition_val,condition,correct,correct_cleaned,rt
sub-096,1,0,FALSE,left,avoid,pos,meat17_crop.jpg,1,1,TRUE,0,2,1357.3558,96,EAT                                    DON'T EAT,1355.7003,1351.68,1338.4055,right,2,right,right,not_eat,not_eat,avoid,pos,avoid-pos,1,1,1655.5
sub-096,2,0,FALSE,left,avoid,pos,meat11_crop.jpg,1,1,TRUE,1,2,1358.8153,96,EAT                                    DON'T EAT,1357.7186,1351.68,1338.4055,right,2,right,right,not_eat,not_eat,avoid,pos,avoid-pos,1,1,1096.7000000001863
sub-096,3,0,FALSE,left,avoid,pos,meat34_crop.jpg,1,1,TRUE,2,--,NA,96,EAT                                    DON'T EAT,1359.7368,1351.68,1338.4055,right,--,NA,NA,no_response,no_response,avoid,pos,avoid-pos,NA,NA,NA
sub-096,4,0,TRUE,left,approach,pos,cake19_crop.jpg,1,1,TRUE,3,1,1362.6748,96,EAT                                    DON'T EAT,1361.7587,1351.68,1338.4055,right,1,left,left,eat,eat,avoid,pos,avoid-pos,1,1,916.0999999998603
sub-096,5,0,TRUE,left,approach,neg,insect35_crop.jpg,1,1,TRUE,4,1,1364.6626,96,EAT                                    DON'T EAT,1363.7756,1351.68,1338.4055,right,1,left,left,eat,eat,avoid,pos,avoid-pos,1,1,887.0000000002328
sub-096,6,0,FALSE,left,avoid,pos,meat31_crop.jpg,1,1,TRUE,5,2,1366.5391,96,EAT                                    DON'T EAT,1365.7915,1351.68,1338.4055,right,2,right,right,not_eat,not_eat,avoid,pos,avoid-pos,1,1,747.5999999998603
sub-096,7,0,FALSE,left,avoid,pos,meat10_crop.jpg,1,1,TRUE,6,2,1368.7395,96,EAT                                    DON'T EAT,1367.8103,1351.68,1338.4055,right,2,right,right,not_eat,not_eat,avoid,pos,avoid-pos,1,1,929.1999999999534
sub-096,8,0,FALSE,left,avoid,pos,meat40_crop.jpg,1,1,TRUE,7,2,1370.5356,96,EAT                                    DON'T EAT,1369.8289,1351.68,1338.4055,right,2,right,right,not_eat,not_eat,avoid,pos,avoid-pos,1,1,706.6999999999534
sub-096,9,0,FALSE,left,avoid,pos,meat38_crop.jpg,1,1,TRUE,8,2,1372.6929,96,EAT                                    DON'T EAT,1371.847,1351.68,1338.4055,right,2,right,right,not_eat,not_eat,avoid,pos,avoid-pos,1,1,845.8999999999069
sub-096,10,0,FALSE,left,avoid,pos,meat36_crop.jpg,1,1,TRUE,9,2,1374.6469,96,EAT                                    DON'T EAT,1373.8654,1351.68,1338.4055,right,2,right,right,not_eat,not_eat,avoid,pos,avoid-pos,1,1,781.5
sub-096,11,0,FALSE,right,approach,neg,insect38_crop.jpg,1,2,TRUE,10,1,1391.1869,96,EAT                                    DON'T EAT,1390.3955,1386.3757,1338.4055,right,1,left,left,eat,eat,approach,neg,approach-neg,1,1,791.3999999999069
sub-096,12,0,FALSE,right,approach,neg,insect40_crop.jpg,1,2,TRUE,11,1,1393.2897,96,EAT                                    DON'T EAT,1392.4141,1386.3757,1338.4055,right,1,left,left,eat,eat,approach,neg,approach-neg,1,1,875.6000000000931
sub-096,13,0,FALSE,right,approach,neg,insect14_crop.jpg,1,2,TRUE,12,1,1395.2036,96,EAT                                    DON'T EAT,1394.4324,1386.3757,1338.4055,right,1,left,left,eat,eat,approach,neg,approach-neg,1,1,771.2000000001863
sub-096,14,0,TRUE,right,avoid,neg,fungus29_crop.jpg,1,2,TRUE,13,--,NA,96,EAT                                    DON'T EAT,1396.4507,1386.3757,1338.4055,right,--,NA,NA,no_response,no_response,approach,neg,approach-neg,NA,NA,NA
sub-096,15,0,FALSE,right,approach,neg,insect32_crop.jpg,1,2,TRUE,14,2,1398.6285,96,EAT                                    DON'T EAT,1398.4692,1386.3757,1338.4055,right,2,right,right,not_eat,not_eat,approach,neg,approach-neg,0,0,159.30000000004657
sub-096,16,0,FALSE,right,approach,neg,insect39_crop.jpg,1,2,TRUE,15,1,1401.4492,96,EAT                                    DON'T EAT,1400.4875,1386.3757,1338.4055,right,1,left,left,eat,eat,approach,neg,approach-neg,1,1,961.6999999999534
sub-096,17,0,FALSE,right,approach,neg,insect16_crop.jpg,1,2,TRUE,16,1,1404.0465,96,EAT                                    DON'T EAT,1402.5057,1386.3757,1338.4055,right,1,left,left,eat,eat,approach,neg,approach-neg,1,1,1540.8000000000466
sub-096,18,0,FALSE,right,approach,neg,insect10_crop.jpg,1,2,TRUE,17,1,1405.425,96,EAT                                    DON'T EAT,1404.524,1386.3757,1338.4055,right,1,left,left,eat,eat,approach,neg,approach-neg,1,1,901
sub-096,19,0,FALSE,right,approach,neg,insect31_crop.jpg,1,2,TRUE,18,1,1407.5457,96,EAT                                    DON'T EAT,1406.5425,1386.3757,1338.4055,right,1,left,left,eat,eat,approach,neg,approach-neg,1,1,1003.1999999999534
sub-096,20,0,TRUE,right,avoid,pos,meat14_crop.jpg,1,2,TRUE,19,2,1409.5817,96,EAT                                    DON'T EAT,1408.5609,1386.3757,1338.4055,right,2,right,right,not_eat,not_eat,approach,neg,approach-neg,1,1,1020.8000000000466
sub-096,21,2,FALSE,right,avoid,pos,meat36_crop.jpg,1,3,TRUE,20,2,1427.945,96,EAT                                    DON'T EAT,1427.1428,1423.1229,1338.4055,right,2,right,right,not_eat,not_eat,avoid,pos,avoid-pos,1,1,802.1999999999534
sub-096,22,2,FALSE,right,avoid,pos,meat37_crop.jpg,1,3,TRUE,21,2,1429.912,96,EAT                                    DON'T EAT,1429.161,1423.1229,1338.4055,right,2,right,right,not_eat,not_eat,avoid,pos,avoid-pos,1,1,751
sub-096,23,2,FALSE,right,avoid,pos,meat35_crop.jpg,1,3,TRUE,22,2,1431.9309,96,EAT                                    DON'T EAT,1431.1798,1423.1229,1338.4055,right,2,right,right,not_eat,not_eat,avoid,pos,avoid-pos,1,1,751.100000000326
sub-096,24,2,FALSE,right,avoid,pos,meat17_crop.jpg,1,3,TRUE,23,2,1433.9465,96,EAT                                    DON'T EAT,1433.1982,1423.1229,1338.4055,right,2,right,right,not_eat,not_eat,avoid,pos,avoid-pos,1,1,748.3000000000466
sub-096,25,2,TRUE,right,approach,neg,insect12_crop.jpg,1,3,TRUE,24,1,1435.9552,96,EAT                                    DON'T EAT,1435.2163,1423.1229,1338.4055,right,1,left,left,eat,eat,avoid,pos,avoid-pos,1,1,738.9000000001397
sub-096,26,2,FALSE,right,avoid,pos,meat21_crop.jpg,1,3,TRUE,25,2,1437.9542,96,EAT                                    DON'T EAT,1437.2345,1423.1229,1338.4055,right,2,right,right,not_eat,not_eat,avoid,pos,avoid-pos,1,1,719.6999999999534
sub-096,27,2,FALSE,right,avoid,pos,meat22_crop.jpg,1,3,TRUE,26,2,1439.9604,96,EAT                                    DON'T EAT,1439.253,1423.1229,1338.4055,right,2,right,right,not_eat,not_eat,avoid,pos,avoid-pos,1,1,707.3999999999069
sub-096,28,2,FALSE,right,avoid,pos,meat26_crop.jpg,1,3,TRUE,27,2,1441.9479,96,EAT                                    DON'T EAT,1441.2711,1423.1229,1338.4055,right,2,right,right,not_eat,not_eat,avoid,pos,avoid-pos,1,1,676.8000000000466
sub-096,29,2,TRUE,right,approach,pos,cake17_crop.jpg,1,3,TRUE,28,1,1444.0714,96,EAT                                    DON'T EAT,1443.2894,1423.1229,1338.4055,right,1,left,left,eat,eat,avoid,pos,avoid-pos,1,1,782.0000000002328
sub-096,30,2,FALSE,right,avoid,pos,meat34_crop.jpg,1,3,TRUE,29,2,1447.0472,96,EAT                                    DON'T EAT,1445.3083,1423.1229,1338.4055,right,2,right,right,not_eat,not_eat,avoid,pos,avoid-pos,1,1,1738.9000000001397
sub-096,31,1,FALSE,left,approach,neg,insect1_crop.jpg,1,4,TRUE,30,1,1462.2908,96,EAT                                    DON'T EAT,1461.5049,1457.4847,1338.4055,right,1,left,left,eat,eat,approach,neg,approach-neg,1,1,785.9000000001397
sub-096,32,1,FALSE,left,approach,neg,insect39_crop.jpg,1,4,TRUE,31,1,1464.1686,96,EAT                                    DON'T EAT,1463.5232,1457.4847,1338.4055,right,1,left,left,eat,eat,approach,neg,approach-neg,1,1,645.399999999674
sub-096,33,1,FALSE,left,approach,neg,insect23_crop.jpg,1,4,TRUE,32,1,1466.2054,96,EAT                                    DON'T EAT,1465.5415,1457.4847,1338.4055,right,1,left,left,eat,eat,approach,neg,approach-neg,1,1,663.9000000001397
sub-096,34,1,TRUE,left,avoid,pos,meat24_crop.jpg,1,4,TRUE,33,2,1468.4371,96,EAT                                    DON'T EAT,1467.5597,1457.4847,1338.4055,right,2,right,right,not_eat,not_eat,approach,neg,approach-neg,1,1,877.4000000001397
sub-096,35,1,FALSE,left,approach,neg,insect11_crop.jpg,1,4,TRUE,34,1,1470.4015,96,EAT                                    DON'T EAT,1469.5782,1457.4847,1338.4055,right,1,left,left,eat,eat,approach,neg,approach-neg,1,1,823.3000000000466
sub-096,36,1,TRUE,left,avoid,neg,fungus24_crop.jpg,1,4,TRUE,35,2,1472.564,96,EAT                                    DON'T EAT,1471.5968,1457.4847,1338.4055,right,2,right,right,not_eat,not_eat,approach,neg,approach-neg,1,1,967.1999999999534
sub-096,37,1,FALSE,left,approach,neg,insect16_crop.jpg,1,4,TRUE,36,1,1474.7062,96,EAT                                    DON'T EAT,1473.6149,1457.4847,1338.4055,right,1,left,left,eat,eat,approach,neg,approach-neg,1,1,1091.3000000000466
sub-096,38,1,FALSE,left,approach,neg,insect26_crop.jpg,1,4,TRUE,37,1,1476.624,96,EAT                                    DON'T EAT,1475.6332,1457.4847,1338.4055,right,1,left,left,eat,eat,approach,neg,approach-neg,1,1,990.8000000000466
sub-096,39,1,FALSE,left,approach,neg,insect24_crop.jpg,1,4,TRUE,38,1,1478.4628,96,EAT                                    DON'T EAT,1477.6515,1457.4847,1338.4055,right,1,left,left,eat,eat,approach,neg,approach-neg,1,1,811.3000000000466
sub-096,40,1,FALSE,left,approach,neg,insect12_crop.jpg,1,4,TRUE,39,1,1480.4054,96,EAT                                    DON'T EAT,1479.6697,1457.4847,1338.4055,right,1,left,left,eat,eat,approach,neg,approach-neg,1,1,735.7000000001863
sub-096,41,0,FALSE,left,approach,pos,cake4_crop.jpg,1,5,TRUE,40,1,1498.085,96,EAT                                    DON'T EAT,1497.0177,1492.9979,1338.4055,right,1,left,left,eat,eat,approach,pos,approach-pos,1,1,1067.2999999998137
sub-096,42,0,TRUE,left,avoid,pos,meat27_crop.jpg,1,5,TRUE,41,2,1499.8702,96,EAT                                    DON'T EAT,1499.0361,1492.9979,1338.4055,right,2,right,right,not_eat,not_eat,approach,pos,approach-pos,1,1,834.0999999998603
sub-096,43,0,FALSE,left,approach,pos,cake36_crop.jpg,1,5,TRUE,42,1,1501.8622,96,EAT                                    DON'T EAT,1501.0546,1492.9979,1338.4055,right,1,left,left,eat,eat,approach,pos,approach-pos,1,1,807.6000000000931
sub-096,44,0,FALSE,left,approach,pos,cake12_crop.jpg,1,5,TRUE,43,1,1504.004,96,EAT                                    DON'T EAT,1503.0728,1492.9979,1338.4055,right,1,left,left,eat,eat,approach,pos,approach-pos,1,1,931.2000000001863
sub-096,45,0,FALSE,left,approach,pos,cake3_crop.jpg,1,5,TRUE,44,1,1505.9064,96,EAT                                    DON'T EAT,1505.091,1492.9979,1338.4055,right,1,left,left,eat,eat,approach,pos,approach-pos,1,1,815.4000000001397
sub-096,46,0,FALSE,left,approach,pos,cake9_crop.jpg,1,5,TRUE,45,1,1507.8268,96,EAT                                    DON'T EAT,1507.1095,1492.9979,1338.4055,right,1,left,left,eat,eat,approach,pos,approach-pos,1,1,717.3000000000466
sub-096,47,0,FALSE,left,approach,pos,cake6_crop.jpg,1,5,TRUE,46,1,1509.834,96,EAT                                    DON'T EAT,1509.1278,1492.9979,1338.4055,right,1,left,left,eat,eat,approach,pos,approach-pos,1,1,706.1999999999534
sub-096,48,0,TRUE,left,avoid,neg,fungus10_crop.jpg,1,5,TRUE,47,2,1512.0906,96,EAT                                    DON'T EAT,1511.146,1492.9979,1338.4055,right,2,right,right,not_eat,not_eat,approach,pos,approach-pos,1,1,944.6000000000931
sub-096,49,0,FALSE,left,approach,pos,cake35_crop.jpg,1,5,TRUE,48,1,1513.9795,96,EAT                                    DON'T EAT,1513.1646,1492.9979,1338.4055,right,1,left,left,eat,eat,approach,pos,approach-pos,1,1,814.8999999999069
sub-096,50,0,FALSE,left,approach,pos,cake16_crop.jpg,1,5,TRUE,49,1,1516.0461,96,EAT                                    DON'T EAT,1515.1825,1492.9979,1338.4055,right,1,left,left,eat,eat,approach,pos,approach-pos,1,1,863.6000000000931
sub-096,51,2,FALSE,left,avoid,neg,fungus31_crop.jpg,1,6,TRUE,50,2,1533.2164,96,EAT                                    DON'T EAT,1531.8966,1527.8765,1338.4055,right,2,right,right,not_eat,not_eat,avoid,neg,avoid-neg,1,1,1319.7999999998137
sub-096,52,2,FALSE,left,avoid,neg,fungus11_crop.jpg,1,6,TRUE,51,2,1535.005,96,EAT                                    DON'T EAT,1533.915,1527.8765,1338.4055,right,2,right,right,not_eat,not_eat,avoid,neg,avoid-neg,1,1,1090
sub-096,53,2,FALSE,left,avoid,neg,fungus36_crop.jpg,1,6,TRUE,52,2,1537.7549,96,EAT                                    DON'T EAT,1535.9333,1527.8765,1338.4055,right,2,right,right,not_eat,not_eat,avoid,neg,avoid-neg,1,1,1821.6000000000931
sub-096,54,2,TRUE,left,approach,neg,insect29_crop.jpg,1,6,TRUE,53,1,1538.7537,96,EAT                                    DON'T EAT,1537.9517,1527.8765,1338.4055,right,1,left,left,eat,eat,avoid,neg,avoid-neg,1,1,801.9999999997672
sub-096,55,2,FALSE,left,avoid,neg,fungus8_crop.jpg,1,6,TRUE,54,2,1540.9211,96,EAT                                    DON'T EAT,1539.9702,1527.8765,1338.4055,right,2,right,right,not_eat,not_eat,avoid,neg,avoid-neg,1,1,950.9000000001397
sub-096,56,2,TRUE,left,approach,pos,cake11_crop.jpg,1,6,TRUE,55,1,1543.0222,96,EAT                                    DON'T EAT,1541.9885,1527.8765,1338.4055,right,1,left,left,eat,eat,avoid,neg,avoid-neg,1,1,1033.7000000001863
sub-096,57,2,FALSE,left,avoid,neg,fungus18_crop.jpg,1,6,TRUE,56,2,1544.8549,96,EAT                                    DON'T EAT,1544.0068,1527.8765,1338.4055,right,2,right,right,not_eat,not_eat,avoid,neg,avoid-neg,1,1,848.1000000000931
sub-096,58,2,FALSE,left,avoid,neg,fungus35_crop.jpg,1,6,TRUE,57,2,1546.9448,96,EAT                                    DON'T EAT,1546.0251,1527.8765,1338.4055,right,2,right,right,not_eat,not_eat,avoid,neg,avoid-neg,1,1,919.6999999999534
sub-096,59,2,FALSE,left,avoid,neg,fungus21_crop.jpg,1,6,TRUE,58,2,1548.9615,96,EAT                                    DON'T EAT,1548.0435,1527.8765,1338.4055,right,2,right,right,not_eat,not_eat,avoid,neg,avoid-neg,1,1,918
sub-096,60,2,FALSE,left,avoid,neg,fungus40_crop.jpg,1,6,TRUE,59,2,1550.9672,96,EAT                                    DON'T EAT,1550.0618,1527.8765,1338.4055,right,2,right,right,not_eat,not_eat,avoid,neg,avoid-neg,1,1,905.3999999999069
sub-096,61,3,TRUE,left,approach,neg,insect19_crop.jpg,1,7,TRUE,60,1,1567.4929,96,EAT                                    DON'T EAT,1566.5421,1562.5221,1338.4055,right,1,left,left,eat,eat,avoid,neg,avoid-neg,1,1,950.8000000000466
sub-096,62,3,FALSE,left,avoid,neg,fungus22_crop.jpg,1,7,TRUE,61,2,1569.3752,96,EAT                                    DON'T EAT,1568.5605,1562.5221,1338.4055,right,2,right,right,not_eat,not_eat,avoid,neg,avoid-neg,1,1,814.6999999999534
sub-096,63,3,FALSE,left,avoid,neg,fungus20_crop.jpg,1,7,TRUE,62,--,NA,96,EAT                                    DON'T EAT,1570.579,1562.5221,1338.4055,right,--,NA,NA,no_response,no_response,avoid,neg,avoid-neg,NA,NA,NA
sub-096,64,3,FALSE,left,avoid,neg,fungus37_crop.jpg,1,7,TRUE,63,2,1572.6086,96,EAT                                    DON'T EAT,1572.597,1562.5221,1338.4055,right,2,right,right,not_eat,not_eat,avoid,neg,avoid-neg,1,1,11.600000000093132
sub-096,65,3,TRUE,left,approach,pos,cake29_crop.jpg,1,7,TRUE,64,1,1575.4602,96,EAT                                    DON'T EAT,1574.6156,1562.5221,1338.4055,right,1,left,left,eat,eat,avoid,neg,avoid-neg,1,1,844.5999999998603
sub-096,66,3,FALSE,left,avoid,neg,fungus5_crop.jpg,1,7,TRUE,65,2,1577.5929,96,EAT                                    DON'T EAT,1576.6339,1562.5221,1338.4055,right,2,right,right,not_eat,not_eat,avoid,neg,avoid-neg,1,1,959
sub-096,67,3,FALSE,left,avoid,neg,fungus4_crop.jpg,1,7,TRUE,66,2,1579.4427,96,EAT                                    DON'T EAT,1578.6522,1562.5221,1338.4055,right,2,right,right,not_eat,not_eat,avoid,neg,avoid-neg,1,1,790.5
sub-096,68,3,FALSE,left,avoid,neg,fungus34_crop.jpg,1,7,TRUE,67,2,1581.6528,96,EAT                                    DON'T EAT,1580.6707,1562.5221,1338.4055,right,2,right,right,not_eat,not_eat,avoid,neg,avoid-neg,1,1,982.1000000000931
sub-096,69,3,FALSE,left,avoid,neg,fungus16_crop.jpg,1,7,TRUE,68,2,1583.6709,96,EAT                                    DON'T EAT,1582.689,1562.5221,1338.4055,right,2,right,right,not_eat,not_eat,avoid,neg,avoid-neg,1,1,981.9000000001397
sub-096,70,3,FALSE,left,avoid,neg,fungus13_crop.jpg,1,7,TRUE,69,2,1585.9553,96,EAT                                    DON'T EAT,1584.7074,1562.5221,1338.4055,right,2,right,right,not_eat,not_eat,avoid,neg,avoid-neg,1,1,1247.9000000001397
sub-096,71,0,FALSE,right,avoid,neg,fungus20_crop.jpg,1,8,TRUE,70,--,NA,96,EAT                                    DON'T EAT,1603.5397,1599.5195,1338.4055,right,--,NA,NA,no_response,no_response,avoid,neg,avoid-neg,NA,NA,NA
sub-096,72,0,TRUE,right,approach,neg,insect1_crop.jpg,1,8,TRUE,71,2,1605.6322,96,EAT                                    DON'T EAT,1605.5576,1599.5195,1338.4055,right,2,right,right,not_eat,not_eat,avoid,neg,avoid-neg,0,0,74.5999999998603
sub-096,73,0,FALSE,right,avoid,neg,fungus35_crop.jpg,1,8,TRUE,72,2,1608.6223,96,EAT                                    DON'T EAT,1607.5763,1599.5195,1338.4055,right,2,right,right,not_eat,not_eat,avoid,neg,avoid-neg,1,1,1046
sub-096,74,0,FALSE,right,avoid,neg,fungus33_crop.jpg,1,8,TRUE,73,2,1610.6068,96,EAT                                    DON'T EAT,1609.5946,1599.5195,1338.4055,right,2,right,right,not_eat,not_eat,avoid,neg,avoid-neg,1,1,1012.2000000001863
sub-096,75,0,FALSE,right,avoid,neg,fungus13_crop.jpg,1,8,TRUE,74,2,1612.4401,96,EAT                                    DON'T EAT,1611.613,1599.5195,1338.4055,right,2,right,right,not_eat,not_eat,avoid,neg,avoid-neg,1,1,827.1000000000931
sub-096,76,0,FALSE,right,avoid,neg,fungus19_crop.jpg,1,8,TRUE,75,2,1614.4569,96,EAT                                    DON'T EAT,1613.6313,1599.5195,1338.4055,right,2,right,right,not_eat,not_eat,avoid,neg,avoid-neg,1,1,825.5999999998603
sub-096,77,0,FALSE,right,avoid,neg,fungus30_crop.jpg,1,8,TRUE,76,2,1616.5605,96,EAT                                    DON'T EAT,1615.6495,1599.5195,1338.4055,right,2,right,right,not_eat,not_eat,avoid,neg,avoid-neg,1,1,911
sub-096,78,0,FALSE,right,avoid,neg,fungus6_crop.jpg,1,8,TRUE,77,2,1618.7285,96,EAT                                    DON'T EAT,1617.6678,1599.5195,1338.4055,right,2,right,right,not_eat,not_eat,avoid,neg,avoid-neg,1,1,1060.6999999999534
sub-096,79,0,TRUE,right,approach,pos,cake33_crop.jpg,1,8,TRUE,78,1,1620.7036,96,EAT                                    DON'T EAT,1619.6865,1599.5195,1338.4055,right,1,left,left,eat,eat,avoid,neg,avoid-neg,1,1,1017.1000000000931
sub-096,80,0,FALSE,right,avoid,neg,fungus36_crop.jpg,1,8,TRUE,79,2,1622.7212,96,EAT                                    DON'T EAT,1621.7047,1599.5195,1338.4055,right,2,right,right,not_eat,not_eat,avoid,neg,avoid-neg,1,1,1016.5
sub-096,81,3,TRUE,left,avoid,pos,meat30_crop.jpg,2,9,TRUE,80,2,1739.3335,96,EAT                                    DON'T EAT,1738.4352,1734.4152,1720.812,left,2,right,right,not_eat,not_eat,approach,pos,approach-pos,1,1,898.3000000000466
sub-096,82,3,FALSE,left,approach,pos,cake23_crop.jpg,2,9,TRUE,81,1,1741.373,96,EAT                                    DON'T EAT,1740.453,1734.4152,1720.812,left,1,left,left,eat,eat,approach,pos,approach-pos,1,1,920
sub-096,83,3,FALSE,left,approach,pos,cake37_crop.jpg,2,9,TRUE,82,1,1743.2323,96,EAT                                    DON'T EAT,1742.4719,1734.4152,1720.812,left,1,left,left,eat,eat,approach,pos,approach-pos,1,1,760.3999999999069
sub-096,84,3,FALSE,left,approach,pos,cake40_crop.jpg,2,9,TRUE,83,1,1745.178,96,EAT                                    DON'T EAT,1744.4902,1734.4152,1720.812,left,1,left,left,eat,eat,approach,pos,approach-pos,1,1,687.8000000000466
sub-096,85,3,FALSE,left,approach,pos,cake18_crop.jpg,2,9,TRUE,84,1,1747.2703,96,EAT                                    DON'T EAT,1746.5085,1734.4152,1720.812,left,1,left,left,eat,eat,approach,pos,approach-pos,1,1,761.7999999998137
sub-096,86,3,FALSE,left,approach,pos,cake17_crop.jpg,2,9,TRUE,85,1,1749.2041,96,EAT                                    DON'T EAT,1748.527,1734.4152,1720.812,left,1,left,left,eat,eat,approach,pos,approach-pos,1,1,677.0999999998603
sub-096,87,3,FALSE,left,approach,pos,cake38_crop.jpg,2,9,TRUE,86,1,1751.2843,96,EAT                                    DON'T EAT,1750.545,1734.4152,1720.812,left,1,left,left,eat,eat,approach,pos,approach-pos,1,1,739.3000000000466
sub-096,88,3,FALSE,left,approach,pos,cake5_crop.jpg,2,9,TRUE,87,1,1753.3885,96,EAT                                    DON'T EAT,1752.5635,1734.4152,1720.812,left,1,left,left,eat,eat,approach,pos,approach-pos,1,1,825
sub-096,89,3,TRUE,left,avoid,neg,fungus7_crop.jpg,2,9,TRUE,88,2,1755.4373,96,EAT                                    DON'T EAT,1754.5819,1734.4152,1720.812,left,2,right,right,not_eat,not_eat,approach,pos,approach-pos,1,1,855.4000000001397
sub-096,90,3,FALSE,left,approach,pos,cake20_crop.jpg,2,9,TRUE,89,1,1757.4147,96,EAT                                    DON'T EAT,1756.6002,1734.4152,1720.812,left,1,left,left,eat,eat,approach,pos,approach-pos,1,1,814.4999999997672
sub-096,91,0,FALSE,right,approach,pos,cake26_crop.jpg,2,10,TRUE,90,1,1775.3534,96,EAT                                    DON'T EAT,1774.3816,1770.3616,1720.812,left,1,left,left,eat,eat,approach,pos,approach-pos,1,1,971.8000000000466
sub-096,92,0,FALSE,right,approach,pos,cake4_crop.jpg,2,10,TRUE,91,1,1777.0558,96,EAT                                    DON'T EAT,1776.4001,1770.3616,1720.812,left,1,left,left,eat,eat,approach,pos,approach-pos,1,1,655.6999999999534
sub-096,93,0,FALSE,right,approach,pos,cake3_crop.jpg,2,10,TRUE,92,1,1779.0417,96,EAT                                    DON'T EAT,1778.4185,1770.3616,1720.812,left,1,left,left,eat,eat,approach,pos,approach-pos,1,1,623.1999999999534
sub-096,94,0,FALSE,right,approach,pos,cake12_crop.jpg,2,10,TRUE,93,1,1781.0933,96,EAT                                    DON'T EAT,1780.4368,1770.3616,1720.812,left,1,left,left,eat,eat,approach,pos,approach-pos,1,1,656.5
sub-096,95,0,FALSE,right,approach,pos,cake21_crop.jpg,2,10,TRUE,94,1,1783.2256,96,EAT                                    DON'T EAT,1782.4551,1770.3616,1720.812,left,1,left,left,eat,eat,approach,pos,approach-pos,1,1,770.5000000002328
sub-096,96,0,FALSE,right,approach,pos,cake6_crop.jpg,2,10,TRUE,95,1,1785.1505,96,EAT                                    DON'T EAT,1784.4734,1770.3616,1720.812,left,1,left,left,eat,eat,approach,pos,approach-pos,1,1,677.0999999998603
sub-096,97,0,FALSE,right,approach,pos,cake16_crop.jpg,2,10,TRUE,96,1,1787.1471,96,EAT                                    DON'T EAT,1786.4917,1770.3616,1720.812,left,1,left,left,eat,eat,approach,pos,approach-pos,1,1,655.3999999999069
sub-096,98,0,TRUE,right,avoid,pos,meat6_crop.jpg,2,10,TRUE,97,2,1789.2885,96,EAT                                    DON'T EAT,1788.5101,1770.3616,1720.812,left,2,right,right,not_eat,not_eat,approach,pos,approach-pos,1,1,778.4000000001397
sub-096,99,0,FALSE,right,approach,pos,cake15_crop.jpg,2,10,TRUE,98,1,1791.2034,96,EAT                                    DON'T EAT,1790.5286,1770.3616,1720.812,left,1,left,left,eat,eat,approach,pos,approach-pos,1,1,674.8000000000466
sub-096,100,0,TRUE,right,avoid,neg,fungus37_crop.jpg,2,10,TRUE,99,2,1793.4557,96,EAT                                    DON'T EAT,1792.5465,1770.3616,1720.812,left,2,right,right,not_eat,not_eat,approach,pos,approach-pos,1,1,909.1999999999534
sub-096,101,0,FALSE,left,avoid,neg,fungus2_crop.jpg,2,11,TRUE,100,2,1809.5952,96,EAT                                    DON'T EAT,1808.6935,1804.6735,1720.812,left,2,right,right,not_eat,not_eat,avoid,neg,avoid-neg,1,1,901.6999999999534
sub-096,102,0,FALSE,left,avoid,neg,fungus29_crop.jpg,2,11,TRUE,101,2,1811.5483,96,EAT                                    DON'T EAT,1810.7118,1804.6735,1720.812,left,2,right,right,not_eat,not_eat,avoid,neg,avoid-neg,1,1,836.4999999997672
sub-096,103,0,TRUE,left,approach,neg,insect5_crop.jpg,2,11,TRUE,102,1,1813.5,96,EAT                                    DON'T EAT,1812.7303,1804.6735,1720.812,left,1,left,left,eat,eat,avoid,neg,avoid-neg,1,1,769.6999999999534
sub-096,104,0,FALSE,left,avoid,neg,fungus19_crop.jpg,2,11,TRUE,103,2,1815.5614,96,EAT                                    DON'T EAT,1814.7487,1804.6735,1720.812,left,2,right,right,not_eat,not_eat,avoid,neg,avoid-neg,1,1,812.6999999999534
sub-096,105,0,FALSE,left,avoid,neg,fungus15_crop.jpg,2,11,TRUE,104,2,1817.6564,96,EAT                                    DON'T EAT,1816.7668,1804.6735,1720.812,left,2,right,right,not_eat,not_eat,avoid,neg,avoid-neg,1,1,889.6000000000931
sub-096,106,0,TRUE,left,approach,pos,cake21_crop.jpg,2,11,TRUE,105,1,1819.4836,96,EAT                                    DON'T EAT,1818.7853,1804.6735,1720.812,left,1,left,left,eat,eat,avoid,neg,avoid-neg,1,1,698.3000000000466
sub-096,107,0,FALSE,left,avoid,neg,fungus12_crop.jpg,2,11,TRUE,106,2,1821.5637,96,EAT                                    DON'T EAT,1820.8036,1804.6735,1720.812,left,2,right,right,not_eat,not_eat,avoid,neg,avoid-neg,1,1,760.1000000000931
sub-096,108,0,FALSE,left,avoid,neg,fungus14_crop.jpg,2,11,TRUE,107,2,1823.5828,96,EAT                                    DON'T EAT,1822.8219,1804.6735,1720.812,left,2,right,right,not_eat,not_eat,avoid,neg,avoid-neg,1,1,760.8999999999069
sub-096,109,0,FALSE,left,avoid,neg,fungus32_crop.jpg,2,11,TRUE,108,2,1825.6119,96,EAT                                    DON'T EAT,1824.8403,1804.6735,1720.812,left,2,right,right,not_eat,not_eat,avoid,neg,avoid-neg,1,1,771.6000000000931
sub-096,110,0,FALSE,left,avoid,neg,fungus26_crop.jpg,2,11,TRUE,109,2,1827.5243,96,EAT                                    DON'T EAT,1826.8588,1804.6735,1720.812,left,2,right,right,not_eat,not_eat,avoid,neg,avoid-neg,1,1,665.5
sub-096,111,3,FALSE,left,approach,neg,insect33_crop.jpg,2,12,TRUE,110,1,1847.537,96,EAT                                    DON'T EAT,1846.7751,1842.7552,1720.812,left,1,left,left,eat,eat,approach,neg,approach-neg,1,1,761.8999999999069
sub-096,112,3,FALSE,left,approach,neg,insect34_crop.jpg,2,12,TRUE,111,1,1849.3854,96,EAT                                    DON'T EAT,1848.7937,1842.7552,1720.812,left,1,left,left,eat,eat,approach,neg,approach-neg,1,1,591.6999999999534
sub-096,113,3,FALSE,left,approach,neg,insect31_crop.jpg,2,12,TRUE,112,1,1851.3705,96,EAT                                    DON'T EAT,1850.8119,1842.7552,1720.812,left,1,left,left,eat,eat,approach,neg,approach-neg,1,1,558.6000000000931
sub-096,114,3,FALSE,left,approach,neg,insect37_crop.jpg,2,12,TRUE,113,1,1853.5365,96,EAT                                    DON'T EAT,1852.8302,1842.7552,1720.812,left,1,left,left,eat,eat,approach,neg,approach-neg,1,1,706.2999999998137
sub-096,115,3,FALSE,left,approach,neg,insect9_crop.jpg,2,12,TRUE,114,1,1855.5786,96,EAT                                    DON'T EAT,1854.8488,1842.7552,1720.812,left,1,left,left,eat,eat,approach,neg,approach-neg,1,1,729.8000000000466
sub-096,116,3,TRUE,left,avoid,pos,meat26_crop.jpg,2,12,TRUE,115,2,1857.6471,96,EAT                                    DON'T EAT,1856.867,1842.7552,1720.812,left,2,right,right,not_eat,not_eat,approach,neg,approach-neg,1,1,780.0999999998603
sub-096,117,3,FALSE,left,approach,neg,insect36_crop.jpg,2,12,TRUE,116,1,1859.6664,96,EAT                                    DON'T EAT,1858.8853,1842.7552,1720.812,left,1,left,left,eat,eat,approach,neg,approach-neg,1,1,781.100000000326
sub-096,118,3,FALSE,left,approach,neg,insect32_crop.jpg,2,12,TRUE,117,1,1861.6532,96,EAT                                    DON'T EAT,1860.9036,1842.7552,1720.812,left,1,left,left,eat,eat,approach,neg,approach-neg,1,1,749.5999999998603
sub-096,119,3,FALSE,left,approach,neg,insect3_crop.jpg,2,12,TRUE,118,1,1863.8285,96,EAT                                    DON'T EAT,1862.9219,1842.7552,1720.812,left,1,left,left,eat,eat,approach,neg,approach-neg,1,1,906.5999999998603
sub-096,120,3,TRUE,left,avoid,neg,fungus25_crop.jpg,2,12,TRUE,119,2,1865.6573,96,EAT                                    DON'T EAT,1864.9403,1842.7552,1720.812,left,2,right,right,not_eat,not_eat,approach,neg,approach-neg,1,1,717
sub-096,121,1,FALSE,left,avoid,pos,meat23_crop.jpg,2,13,TRUE,120,2,1883.1493,96,EAT                                    DON'T EAT,1882.2711,1878.251,1720.812,left,2,right,right,not_eat,not_eat,avoid,pos,avoid-pos,1,1,878.2000000001863
sub-096,122,1,TRUE,left,approach,pos,cake7_crop.jpg,2,13,TRUE,121,1,1884.9563,96,EAT                                    DON'T EAT,1884.2897,1878.251,1720.812,left,1,left,left,eat,eat,avoid,pos,avoid-pos,1,1,666.6000000000931
sub-096,123,1,FALSE,left,avoid,pos,meat4_crop.jpg,2,13,TRUE,122,2,1887.1838,96,EAT                                    DON'T EAT,1886.3082,1878.251,1720.812,left,2,right,right,not_eat,not_eat,avoid,pos,avoid-pos,1,1,875.6000000000931
sub-096,124,1,FALSE,left,avoid,pos,meat37_crop.jpg,2,13,TRUE,123,2,1889.0455,96,EAT                                    DON'T EAT,1888.3264,1878.251,1720.812,left,2,right,right,not_eat,not_eat,avoid,pos,avoid-pos,1,1,719.1000000000931
sub-096,125,1,FALSE,left,avoid,pos,meat15_crop.jpg,2,13,TRUE,124,2,1891.106,96,EAT                                    DON'T EAT,1890.3448,1878.251,1720.812,left,2,right,right,not_eat,not_eat,avoid,pos,avoid-pos,1,1,761.1999999999534
sub-096,126,1,TRUE,left,approach,neg,insect40_crop.jpg,2,13,TRUE,125,1,1893.0707,96,EAT                                    DON'T EAT,1892.3632,1878.251,1720.812,left,1,left,left,eat,eat,avoid,pos,avoid-pos,1,1,707.5
sub-096,127,1,FALSE,left,avoid,pos,meat5_crop.jpg,2,13,TRUE,126,2,1895.0797,96,EAT                                    DON'T EAT,1894.3811,1878.251,1720.812,left,2,right,right,not_eat,not_eat,avoid,pos,avoid-pos,1,1,698.5999999998603
sub-096,128,1,FALSE,left,avoid,pos,meat3_crop.jpg,2,13,TRUE,127,2,1897.0557,96,EAT                                    DON'T EAT,1896.3997,1878.251,1720.812,left,2,right,right,not_eat,not_eat,avoid,pos,avoid-pos,1,1,656
sub-096,129,1,FALSE,left,avoid,pos,meat13_crop.jpg,2,13,TRUE,128,2,1899.1357,96,EAT                                    DON'T EAT,1898.4182,1878.251,1720.812,left,2,right,right,not_eat,not_eat,avoid,pos,avoid-pos,1,1,717.4999999997672
sub-096,130,1,FALSE,left,avoid,pos,meat20_crop.jpg,2,13,TRUE,129,2,1901.1766,96,EAT                                    DON'T EAT,1900.4364,1878.251,1720.812,left,2,right,right,not_eat,not_eat,avoid,pos,avoid-pos,1,1,740.1999999999534
sub-096,131,1,FALSE,left,approach,pos,cake30_crop.jpg,2,14,TRUE,130,1,1918.0638,96,EAT                                    DON'T EAT,1917.1165,1913.0968,1720.812,left,1,left,left,eat,eat,approach,pos,approach-pos,1,1,947.2999999998137
sub-096,132,1,FALSE,left,approach,pos,cake13_crop.jpg,2,14,TRUE,131,1,1919.8654,96,EAT                                    DON'T EAT,1919.1351,1913.0968,1720.812,left,1,left,left,eat,eat,approach,pos,approach-pos,1,1,730.3000000000466
sub-096,133,1,FALSE,left,approach,pos,cake10_crop.jpg,2,14,TRUE,132,1,1921.9252,96,EAT                                    DON'T EAT,1921.1538,1913.0968,1720.812,left,1,left,left,eat,eat,approach,pos,approach-pos,1,1,771.3999999999069
sub-096,134,1,FALSE,left,approach,pos,cake27_crop.jpg,2,14,TRUE,133,1,1923.8594,96,EAT                                    DON'T EAT,1923.1719,1913.0968,1720.812,left,1,left,left,eat,eat,approach,pos,approach-pos,1,1,687.5
sub-096,135,1,FALSE,left,approach,pos,cake34_crop.jpg,2,14,TRUE,134,1,1925.9313,96,EAT                                    DON'T EAT,1925.1904,1913.0968,1720.812,left,1,left,left,eat,eat,approach,pos,approach-pos,1,1,740.9000000001397
sub-096,136,1,FALSE,left,approach,pos,cake32_crop.jpg,2,14,TRUE,135,1,1927.9149,96,EAT                                    DON'T EAT,1927.2087,1913.0968,1720.812,left,1,left,left,eat,eat,approach,pos,approach-pos,1,1,706.1999999999534
sub-096,137,1,TRUE,left,avoid,pos,meat18_crop.jpg,2,14,TRUE,136,2,1930.0836,96,EAT                                    DON'T EAT,1929.2272,1913.0968,1720.812,left,2,right,right,not_eat,not_eat,approach,pos,approach-pos,1,1,856.3999999999069
sub-096,138,1,FALSE,left,approach,pos,cake1_crop.jpg,2,14,TRUE,137,1,1931.9647,96,EAT                                    DON'T EAT,1931.2454,1913.0968,1720.812,left,1,left,left,eat,eat,approach,pos,approach-pos,1,1,719.3000000000466
sub-096,139,1,TRUE,left,avoid,neg,fungus30_crop.jpg,2,14,TRUE,138,2,1933.9286,96,EAT                                    DON'T EAT,1933.2639,1913.0968,1720.812,left,2,right,right,not_eat,not_eat,approach,pos,approach-pos,1,1,664.6999999999534
sub-096,140,1,FALSE,left,approach,pos,cake15_crop.jpg,2,14,TRUE,139,1,1935.947,96,EAT                                    DON'T EAT,1935.2822,1913.0968,1720.812,left,1,left,left,eat,eat,approach,pos,approach-pos,1,1,664.7999999998137
sub-096,141,1,FALSE,right,approach,neg,insect4_crop.jpg,2,15,TRUE,140,1,1955.2085,96,EAT                                    DON'T EAT,1954.4982,1950.4781,1720.812,left,1,left,left,eat,eat,approach,neg,approach-neg,1,1,710.3000000000466
sub-096,142,1,FALSE,right,approach,neg,insect17_crop.jpg,2,15,TRUE,141,1,1957.1294,96,EAT                                    DON'T EAT,1956.5164,1950.4781,1720.812,left,1,left,left,eat,eat,approach,neg,approach-neg,1,1,613.0000000002328
sub-096,143,1,FALSE,right,approach,neg,insect18_crop.jpg,2,15,TRUE,142,1,1959.0851,96,EAT                                    DON'T EAT,1958.5348,1950.4781,1720.812,left,1,left,left,eat,eat,approach,neg,approach-neg,1,1,550.3000000002794
sub-096,144,1,FALSE,right,approach,neg,insect29_crop.jpg,2,15,TRUE,143,1,1961.2195,96,EAT                                    DON'T EAT,1960.5531,1950.4781,1720.812,left,1,left,left,eat,eat,approach,neg,approach-neg,1,1,666.3999999999069
sub-096,145,1,FALSE,right,approach,neg,insect15_crop.jpg,2,15,TRUE,144,1,1963.2872,96,EAT                                    DON'T EAT,1962.5714,1950.4781,1720.812,left,1,left,left,eat,eat,approach,neg,approach-neg,1,1,715.7999999998137
sub-096,146,1,FALSE,right,approach,neg,insect33_crop.jpg,2,15,TRUE,145,1,1965.2986,96,EAT                                    DON'T EAT,1964.5897,1950.4781,1720.812,left,1,left,left,eat,eat,approach,neg,approach-neg,1,1,708.9000000001397
sub-096,147,1,FALSE,right,approach,neg,insect37_crop.jpg,2,15,TRUE,146,1,1967.4768,96,EAT                                    DON'T EAT,1966.6082,1950.4781,1720.812,left,1,left,left,eat,eat,approach,neg,approach-neg,1,1,868.5999999998603
sub-096,148,1,FALSE,right,approach,neg,insect11_crop.jpg,2,15,TRUE,147,1,1969.4731,96,EAT                                    DON'T EAT,1968.6266,1950.4781,1720.812,left,1,left,left,eat,eat,approach,neg,approach-neg,1,1,846.4999999997672
sub-096,149,1,TRUE,right,avoid,neg,fungus14_crop.jpg,2,15,TRUE,148,2,1971.4373,96,EAT                                    DON'T EAT,1970.6449,1950.4781,1720.812,left,2,right,right,not_eat,not_eat,approach,neg,approach-neg,1,1,792.4000000001397
sub-096,150,1,TRUE,right,avoid,pos,meat25_crop.jpg,2,15,TRUE,149,2,1973.4761,96,EAT                                    DON'T EAT,1972.6632,1950.4781,1720.812,left,2,right,right,not_eat,not_eat,approach,neg,approach-neg,1,1,812.9000000001397
sub-096,151,3,TRUE,right,approach,pos,cake37_crop.jpg,2,16,TRUE,150,1,1991.7937,96,EAT                                    DON'T EAT,1990.9285,1986.9084,1720.812,left,1,left,left,eat,eat,avoid,pos,avoid-pos,1,1,865.1999999999534
sub-096,152,3,FALSE,right,avoid,pos,meat11_crop.jpg,2,16,TRUE,151,2,1993.646,96,EAT                                    DON'T EAT,1992.9469,1986.9084,1720.812,left,2,right,right,not_eat,not_eat,avoid,pos,avoid-pos,1,1,699.1000000000931
sub-096,153,3,FALSE,right,avoid,pos,meat4_crop.jpg,2,16,TRUE,152,2,1995.6628,96,EAT                                    DON'T EAT,1994.9651,1986.9084,1720.812,left,2,right,right,not_eat,not_eat,avoid,pos,avoid-pos,1,1,697.7000000001863
sub-096,154,3,FALSE,right,avoid,pos,meat33_crop.jpg,2,16,TRUE,153,2,1997.7028,96,EAT                                    DON'T EAT,1996.9834,1986.9084,1720.812,left,2,right,right,not_eat,not_eat,avoid,pos,avoid-pos,1,1,719.3999999999069
sub-096,155,3,TRUE,right,approach,neg,insect25_crop.jpg,2,16,TRUE,154,1,1999.6901,96,EAT                                    DON'T EAT,1999.0017,1986.9084,1720.812,left,1,left,left,eat,eat,avoid,pos,avoid-pos,1,1,688.4000000001397
sub-096,156,3,FALSE,right,avoid,pos,meat15_crop.jpg,2,16,TRUE,155,2,2001.6642,96,EAT                                    DON'T EAT,2001.0201,1986.9084,1720.812,left,2,right,right,not_eat,not_eat,avoid,pos,avoid-pos,1,1,644.1000000000931
sub-096,157,3,FALSE,right,avoid,pos,meat16_crop.jpg,2,16,TRUE,156,2,2003.9454,96,EAT                                    DON'T EAT,2003.0386,1986.9084,1720.812,left,2,right,right,not_eat,not_eat,avoid,pos,avoid-pos,1,1,906.8000000000466
sub-096,158,3,FALSE,right,avoid,pos,meat18_crop.jpg,2,16,TRUE,157,2,2005.7996,96,EAT                                    DON'T EAT,2005.0569,1986.9084,1720.812,left,2,right,right,not_eat,not_eat,avoid,pos,avoid-pos,1,1,742.6999999999534
sub-096,159,3,FALSE,right,avoid,pos,meat20_crop.jpg,2,16,TRUE,158,2,2007.9923,96,EAT                                    DON'T EAT,2007.0752,1986.9084,1720.812,left,2,right,right,not_eat,not_eat,avoid,pos,avoid-pos,1,1,917.0999999998603
sub-096,160,3,FALSE,right,avoid,pos,meat23_crop.jpg,2,16,TRUE,159,2,2009.8535,96,EAT                                    DON'T EAT,2009.0935,1986.9084,1720.812,left,2,right,right,not_eat,not_eat,avoid,pos,avoid-pos,1,1,760
sub-096,161,2,TRUE,left,avoid,pos,meat14_crop.jpg,3,17,TRUE,160,2,2102.6484,96,EAT                                    DON'T EAT,2101.5037,2097.4836,2084.6013,right,2,right,right,not_eat,not_eat,approach,pos,approach-pos,1,1,1144.6999999997206
sub-096,162,2,FALSE,left,approach,pos,cake26_crop.jpg,3,17,TRUE,161,1,2104.1558,96,EAT                                    DON'T EAT,2103.522,2097.4836,2084.6013,right,1,left,left,eat,eat,approach,pos,approach-pos,1,1,633.7999999998137
sub-096,163,2,FALSE,left,approach,pos,cake14_crop.jpg,3,17,TRUE,162,1,2106.2183,96,EAT                                    DON'T EAT,2105.5403,2097.4836,2084.6013,right,1,left,left,eat,eat,approach,pos,approach-pos,1,1,677.9999999995343
sub-096,164,2,FALSE,left,approach,pos,cake8_crop.jpg,3,17,TRUE,163,1,2108.2542,96,EAT                                    DON'T EAT,2107.5588,2097.4836,2084.6013,right,1,left,left,eat,eat,approach,pos,approach-pos,1,1,695.3999999999069
sub-096,165,2,TRUE,left,avoid,neg,fungus38_crop.jpg,3,17,TRUE,164,2,2110.3718,96,EAT                                    DON'T EAT,2109.5771,2097.4836,2084.6013,right,2,right,right,not_eat,not_eat,approach,pos,approach-pos,1,1,794.6999999997206
sub-096,166,2,FALSE,left,approach,pos,cake2_crop.jpg,3,17,TRUE,165,1,2112.2305,96,EAT                                    DON'T EAT,2111.5955,2097.4836,2084.6013,right,1,left,left,eat,eat,approach,pos,approach-pos,1,1,635
sub-096,167,2,FALSE,left,approach,pos,cake25_crop.jpg,3,17,TRUE,166,1,2114.3105,96,EAT                                    DON'T EAT,2113.6138,2097.4836,2084.6013,right,1,left,left,eat,eat,approach,pos,approach-pos,1,1,696.6999999997206
sub-096,168,2,FALSE,left,approach,pos,cake33_crop.jpg,3,17,TRUE,167,1,2116.32,96,EAT                                    DON'T EAT,2115.632,2097.4836,2084.6013,right,1,left,left,eat,eat,approach,pos,approach-pos,1,1,688
sub-096,169,2,FALSE,left,approach,pos,cake31_crop.jpg,3,17,TRUE,168,1,2118.296,96,EAT                                    DON'T EAT,2117.6504,2097.4836,2084.6013,right,1,left,left,eat,eat,approach,pos,approach-pos,1,1,645.6000000000931
sub-096,170,2,FALSE,left,approach,pos,cake28_crop.jpg,3,17,TRUE,169,1,2120.3257,96,EAT                                    DON'T EAT,2119.669,2097.4836,2084.6013,right,1,left,left,eat,eat,approach,pos,approach-pos,1,1,656.6999999997206
sub-096,171,2,FALSE,right,approach,neg,insect8_crop.jpg,3,18,TRUE,170,1,2139.6174,96,EAT                                    DON'T EAT,2138.668,2134.648,2084.6013,right,1,left,left,eat,eat,approach,neg,approach-neg,1,1,949.3999999999069
sub-096,172,2,FALSE,right,approach,neg,insect6_crop.jpg,3,18,TRUE,171,1,2141.3718,96,EAT                                    DON'T EAT,2140.6863,2134.648,2084.6013,right,1,left,left,eat,eat,approach,neg,approach-neg,1,1,685.5
sub-096,173,2,FALSE,right,approach,neg,insect27_crop.jpg,3,18,TRUE,172,1,2143.3396,96,EAT                                    DON'T EAT,2142.7046,2134.648,2084.6013,right,1,left,left,eat,eat,approach,neg,approach-neg,1,1,634.9999999995343
sub-096,174,2,FALSE,right,approach,neg,insect23_crop.jpg,3,18,TRUE,173,1,2145.4314,96,EAT                                    DON'T EAT,2144.723,2134.648,2084.6013,right,1,left,left,eat,eat,approach,neg,approach-neg,1,1,708.3999999999069
sub-096,175,2,FALSE,right,approach,neg,insect35_crop.jpg,3,18,TRUE,174,1,2147.4495,96,EAT                                    DON'T EAT,2146.7412,2134.648,2084.6013,right,1,left,left,eat,eat,approach,neg,approach-neg,1,1,708.3000000002794
sub-096,176,2,FALSE,right,approach,neg,insect22_crop.jpg,3,18,TRUE,175,1,2149.4993,96,EAT                                    DON'T EAT,2148.7595,2134.648,2084.6013,right,1,left,left,eat,eat,approach,neg,approach-neg,1,1,739.7999999998137
sub-096,177,2,FALSE,right,approach,neg,insect13_crop.jpg,3,18,TRUE,176,1,2151.4749,96,EAT                                    DON'T EAT,2150.778,2134.648,2084.6013,right,1,left,left,eat,eat,approach,neg,approach-neg,1,1,696.9000000003725
sub-096,178,2,FALSE,right,approach,neg,insect2_crop.jpg,3,18,TRUE,177,1,2153.5906,96,EAT                                    DON'T EAT,2152.7964,2134.648,2084.6013,right,1,left,left,eat,eat,approach,neg,approach-neg,1,1,794.1999999997206
sub-096,179,2,TRUE,right,avoid,neg,fungus3_crop.jpg,3,18,TRUE,178,2,2155.6187,96,EAT                                    DON'T EAT,2154.8147,2134.648,2084.6013,right,2,right,right,not_eat,not_eat,approach,neg,approach-neg,1,1,804.0000000004657
sub-096,180,2,TRUE,right,avoid,pos,meat7_crop.jpg,3,18,TRUE,179,2,2157.6252,96,EAT                                    DON'T EAT,2156.833,2134.648,2084.6013,right,2,right,right,not_eat,not_eat,approach,neg,approach-neg,1,1,792.1999999997206
sub-096,181,2,TRUE,left,approach,pos,cake24_crop.jpg,3,19,TRUE,180,1,2174.9133,96,EAT                                    DON'T EAT,2174.064,2170.044,2084.6013,right,1,left,left,eat,eat,avoid,pos,avoid-pos,1,1,849.3000000002794
sub-096,182,2,FALSE,left,avoid,pos,meat22_crop.jpg,3,19,TRUE,181,2,2176.8206,96,EAT                                    DON'T EAT,2176.0823,2170.044,2084.6013,right,2,right,right,not_eat,not_eat,avoid,pos,avoid-pos,1,1,738.3000000002794
sub-096,183,2,FALSE,left,avoid,pos,meat2_crop.jpg,3,19,TRUE,182,2,2178.7986,96,EAT                                    DON'T EAT,2178.1006,2170.044,2084.6013,right,2,right,right,not_eat,not_eat,avoid,pos,avoid-pos,1,1,698
sub-096,184,2,FALSE,left,avoid,pos,meat12_crop.jpg,3,19,TRUE,183,2,2180.7515,96,EAT                                    DON'T EAT,2180.1191,2170.044,2084.6013,right,2,right,right,not_eat,not_eat,avoid,pos,avoid-pos,1,1,632.3999999999069
sub-096,185,2,TRUE,left,approach,neg,insect18_crop.jpg,3,19,TRUE,184,1,2182.8801,96,EAT                                    DON'T EAT,2182.1375,2170.044,2084.6013,right,1,left,left,eat,eat,avoid,pos,avoid-pos,1,1,742.5999999996275
sub-096,186,2,FALSE,left,avoid,pos,meat16_crop.jpg,3,19,TRUE,185,2,2184.9272,96,EAT                                    DON'T EAT,2184.1558,2170.044,2084.6013,right,2,right,right,not_eat,not_eat,avoid,pos,avoid-pos,1,1,771.4000000003725
sub-096,187,2,FALSE,left,avoid,pos,meat6_crop.jpg,3,19,TRUE,186,2,2186.8818,96,EAT                                    DON'T EAT,2186.174,2170.044,2084.6013,right,2,right,right,not_eat,not_eat,avoid,pos,avoid-pos,1,1,707.8000000002794
sub-096,188,2,FALSE,left,avoid,pos,meat32_crop.jpg,3,19,TRUE,187,2,2188.7927,96,EAT                                    DON'T EAT,2188.1924,2170.044,2084.6013,right,2,right,right,not_eat,not_eat,avoid,pos,avoid-pos,1,1,600.3000000002794
sub-096,189,2,FALSE,left,avoid,pos,meat35_crop.jpg,3,19,TRUE,188,2,2190.919,96,EAT                                    DON'T EAT,2190.211,2170.044,2084.6013,right,2,right,right,not_eat,not_eat,avoid,pos,avoid-pos,1,1,708
sub-096,190,2,FALSE,left,avoid,pos,meat28_crop.jpg,3,19,TRUE,189,2,2193.034,96,EAT                                    DON'T EAT,2192.2288,2170.044,2084.6013,right,2,right,right,not_eat,not_eat,avoid,pos,avoid-pos,1,1,805.2000000001863
sub-096,191,2,FALSE,left,approach,neg,insect14_crop.jpg,3,20,TRUE,190,1,2212.92,96,EAT                                    DON'T EAT,2211.9956,2207.9756,2084.6013,right,1,left,left,eat,eat,approach,neg,approach-neg,1,1,924.3999999999069
sub-096,192,2,FALSE,left,approach,neg,insect30_crop.jpg,3,20,TRUE,191,1,2214.6665,96,EAT                                    DON'T EAT,2214.014,2207.9756,2084.6013,right,1,left,left,eat,eat,approach,neg,approach-neg,1,1,652.5
sub-096,193,2,FALSE,left,approach,neg,insect6_crop.jpg,3,20,TRUE,192,1,2216.6965,96,EAT                                    DON'T EAT,2216.0322,2207.9756,2084.6013,right,1,left,left,eat,eat,approach,neg,approach-neg,1,1,664.2999999998137
sub-096,194,2,FALSE,left,approach,neg,insect17_crop.jpg,3,20,TRUE,193,1,2218.6848,96,EAT                                    DON'T EAT,2218.0505,2207.9756,2084.6013,right,1,left,left,eat,eat,approach,neg,approach-neg,1,1,634.2999999998137
sub-096,195,2,FALSE,left,approach,neg,insect38_crop.jpg,3,20,TRUE,194,1,2220.6714,96,EAT                                    DON'T EAT,2220.069,2207.9756,2084.6013,right,1,left,left,eat,eat,approach,neg,approach-neg,1,1,602.4000000003725
sub-096,196,2,TRUE,left,avoid,pos,meat19_crop.jpg,3,20,TRUE,195,2,2222.8496,96,EAT                                    DON'T EAT,2222.0874,2207.9756,2084.6013,right,2,right,right,not_eat,not_eat,approach,neg,approach-neg,1,1,762.2000000001863
sub-096,197,2,FALSE,left,approach,neg,insect8_crop.jpg,3,20,TRUE,196,1,2224.8438,96,EAT                                    DON'T EAT,2224.105,2207.9756,2084.6013,right,1,left,left,eat,eat,approach,neg,approach-neg,1,1,738.8000000002794
sub-096,198,2,FALSE,left,approach,neg,insect22_crop.jpg,3,20,TRUE,197,1,2226.8513,96,EAT                                    DON'T EAT,2226.124,2207.9756,2084.6013,right,1,left,left,eat,eat,approach,neg,approach-neg,1,1,727.2999999998137
sub-096,199,2,FALSE,left,approach,neg,insect7_crop.jpg,3,20,TRUE,198,1,2228.7437,96,EAT                                    DON'T EAT,2228.1423,2207.9756,2084.6013,right,1,left,left,eat,eat,approach,neg,approach-neg,1,1,601.4000000003725
sub-096,200,2,TRUE,left,avoid,neg,fungus39_crop.jpg,3,20,TRUE,199,2,2231.2166,96,EAT                                    DON'T EAT,2230.1606,2207.9756,2084.6013,right,2,right,right,not_eat,not_eat,approach,neg,approach-neg,1,1,1056
sub-096,201,1,TRUE,right,approach,neg,insect7_crop.jpg,3,21,TRUE,200,1,2248.6904,96,EAT                                    DON'T EAT,2247.9587,2243.9387,2084.6013,right,1,left,left,eat,eat,avoid,pos,avoid-pos,1,1,731.6999999997206
sub-096,202,1,TRUE,right,approach,pos,cake2_crop.jpg,3,21,TRUE,201,1,2250.6526,96,EAT                                    DON'T EAT,2249.977,2243.9387,2084.6013,right,1,left,left,eat,eat,avoid,pos,avoid-pos,1,1,675.6000000000931
sub-096,203,1,FALSE,right,avoid,pos,meat28_crop.jpg,3,21,TRUE,202,2,2252.7566,96,EAT                                    DON'T EAT,2251.9954,2243.9387,2084.6013,right,2,right,right,not_eat,not_eat,avoid,pos,avoid-pos,1,1,761.2000000001863
sub-096,204,1,FALSE,right,avoid,pos,meat32_crop.jpg,3,21,TRUE,203,2,2254.7004,96,EAT                                    DON'T EAT,2254.014,2243.9387,2084.6013,right,2,right,right,not_eat,not_eat,avoid,pos,avoid-pos,1,1,686.4000000003725
sub-096,205,1,FALSE,right,avoid,pos,meat27_crop.jpg,3,21,TRUE,204,2,2256.73,96,EAT                                    DON'T EAT,2256.0322,2243.9387,2084.6013,right,2,right,right,not_eat,not_eat,avoid,pos,avoid-pos,1,1,697.7999999998137
sub-096,206,1,FALSE,right,avoid,pos,meat30_crop.jpg,3,21,TRUE,205,2,2258.757,96,EAT                                    DON'T EAT,2258.0505,2243.9387,2084.6013,right,2,right,right,not_eat,not_eat,avoid,pos,avoid-pos,1,1,706.5
sub-096,207,1,FALSE,right,avoid,pos,meat19_crop.jpg,3,21,TRUE,206,2,2260.8909,96,EAT                                    DON'T EAT,2260.0688,2243.9387,2084.6013,right,2,right,right,not_eat,not_eat,avoid,pos,avoid-pos,1,1,822.1000000000931
sub-096,208,1,FALSE,right,avoid,pos,meat31_crop.jpg,3,21,TRUE,207,2,2262.787,96,EAT                                    DON'T EAT,2262.0872,2243.9387,2084.6013,right,2,right,right,not_eat,not_eat,avoid,pos,avoid-pos,1,1,699.8000000002794
sub-096,209,1,FALSE,right,avoid,pos,meat12_crop.jpg,3,21,TRUE,208,2,2264.9395,96,EAT                                    DON'T EAT,2264.1055,2243.9387,2084.6013,right,2,right,right,not_eat,not_eat,avoid,pos,avoid-pos,1,1,834
sub-096,210,1,FALSE,right,avoid,pos,meat8_crop.jpg,3,21,TRUE,209,2,2266.7815,96,EAT                                    DON'T EAT,2266.1238,2243.9387,2084.6013,right,2,right,right,not_eat,not_eat,avoid,pos,avoid-pos,1,1,657.7000000001863
sub-096,211,0,FALSE,left,approach,neg,insect4_crop.jpg,3,22,TRUE,210,1,2284.4226,96,EAT                                    DON'T EAT,2283.705,2279.6848,2084.6013,right,1,left,left,eat,eat,approach,neg,approach-neg,1,1,717.6000000000931
sub-096,212,0,FALSE,left,approach,neg,insect20_crop.jpg,3,22,TRUE,211,1,2286.4124,96,EAT                                    DON'T EAT,2285.7234,2279.6848,2084.6013,right,1,left,left,eat,eat,approach,neg,approach-neg,1,1,689.0000000004657
sub-096,213,0,TRUE,left,avoid,pos,meat21_crop.jpg,3,22,TRUE,212,2,2288.4238,96,EAT                                    DON'T EAT,2287.7412,2279.6848,2084.6013,right,2,right,right,not_eat,not_eat,approach,neg,approach-neg,1,1,682.6000000000931
sub-096,214,0,FALSE,left,approach,neg,insect21_crop.jpg,3,22,TRUE,213,1,2290.373,96,EAT                                    DON'T EAT,2289.76,2279.6848,2084.6013,right,1,left,left,eat,eat,approach,neg,approach-neg,1,1,613
sub-096,215,0,TRUE,left,avoid,neg,fungus9_crop.jpg,3,22,TRUE,214,2,2292.5525,96,EAT                                    DON'T EAT,2291.7786,2279.6848,2084.6013,right,2,right,right,not_eat,not_eat,approach,neg,approach-neg,1,1,773.8999999999069
sub-096,216,0,FALSE,left,approach,neg,insect25_crop.jpg,3,22,TRUE,215,1,2294.4946,96,EAT                                    DON'T EAT,2293.7969,2279.6848,2084.6013,right,1,left,left,eat,eat,approach,neg,approach-neg,1,1,697.7000000001863
sub-096,217,0,FALSE,left,approach,neg,insect27_crop.jpg,3,22,TRUE,216,1,2296.4941,96,EAT                                    DON'T EAT,2295.8152,2279.6848,2084.6013,right,1,left,left,eat,eat,approach,neg,approach-neg,1,1,678.8999999999069
sub-096,218,0,FALSE,left,approach,neg,insect10_crop.jpg,3,22,TRUE,217,1,2298.4995,96,EAT                                    DON'T EAT,2297.8335,2279.6848,2084.6013,right,1,left,left,eat,eat,approach,neg,approach-neg,1,1,666
sub-096,219,0,FALSE,left,approach,neg,insect28_crop.jpg,3,22,TRUE,218,1,2300.4521,96,EAT                                    DON'T EAT,2299.852,2279.6848,2084.6013,right,1,left,left,eat,eat,approach,neg,approach-neg,1,1,600.1000000000931
sub-096,220,0,FALSE,left,approach,neg,insect2_crop.jpg,3,22,TRUE,219,1,2302.495,96,EAT                                    DON'T EAT,2301.8704,2279.6848,2084.6013,right,1,left,left,eat,eat,approach,neg,approach-neg,1,1,624.6000000000931
sub-096,221,0,FALSE,right,avoid,pos,meat10_crop.jpg,3,23,TRUE,220,2,2321.017,96,EAT                                    DON'T EAT,2320.2021,2316.182,2084.6013,right,2,right,right,not_eat,not_eat,avoid,pos,avoid-pos,1,1,814.8999999999069
sub-096,222,0,TRUE,right,approach,pos,cake39_crop.jpg,3,23,TRUE,221,1,2323.0566,96,EAT                                    DON'T EAT,2322.2205,2316.182,2084.6013,right,1,left,left,eat,eat,avoid,pos,avoid-pos,1,1,836.1000000000931
sub-096,223,0,FALSE,right,avoid,pos,meat38_crop.jpg,3,23,TRUE,222,2,2324.9993,96,EAT                                    DON'T EAT,2324.239,2316.182,2084.6013,right,2,right,right,not_eat,not_eat,avoid,pos,avoid-pos,1,1,760.2999999998137
sub-096,224,0,FALSE,right,avoid,pos,meat39_crop.jpg,3,23,TRUE,223,2,2326.9534,96,EAT                                    DON'T EAT,2326.2573,2316.182,2084.6013,right,2,right,right,not_eat,not_eat,avoid,pos,avoid-pos,1,1,696.0999999996275
sub-096,225,0,FALSE,right,avoid,pos,meat9_crop.jpg,3,23,TRUE,224,2,2329.1108,96,EAT                                    DON'T EAT,2328.2754,2316.182,2084.6013,right,2,right,right,not_eat,not_eat,avoid,pos,avoid-pos,1,1,835.3999999999069
sub-096,226,0,FALSE,right,avoid,pos,meat29_crop.jpg,3,23,TRUE,225,2,2330.9512,96,EAT                                    DON'T EAT,2330.294,2316.182,2084.6013,right,2,right,right,not_eat,not_eat,avoid,pos,avoid-pos,1,1,657.2000000001863
sub-096,227,0,TRUE,right,approach,neg,insect24_crop.jpg,3,23,TRUE,226,1,2333.0015,96,EAT                                    DON'T EAT,2332.3123,2316.182,2084.6013,right,1,left,left,eat,eat,avoid,pos,avoid-pos,1,1,689.1999999997206
sub-096,228,0,FALSE,right,avoid,pos,meat5_crop.jpg,3,23,TRUE,227,2,2335.1057,96,EAT                                    DON'T EAT,2334.3306,2316.182,2084.6013,right,2,right,right,not_eat,not_eat,avoid,pos,avoid-pos,1,1,775.1000000005588
sub-096,229,0,FALSE,right,avoid,pos,meat3_crop.jpg,3,23,TRUE,228,2,2337.056,96,EAT                                    DON'T EAT,2336.349,2316.182,2084.6013,right,2,right,right,not_eat,not_eat,avoid,pos,avoid-pos,1,1,707
sub-096,230,0,FALSE,right,avoid,pos,meat13_crop.jpg,3,23,TRUE,229,2,2339.131,96,EAT                                    DON'T EAT,2338.3672,2316.182,2084.6013,right,2,right,right,not_eat,not_eat,avoid,pos,avoid-pos,1,1,763.7999999998137
sub-096,231,1,TRUE,right,approach,pos,cake22_crop.jpg,3,24,TRUE,230,1,2357.193,96,EAT                                    DON'T EAT,2356.4324,2352.4124,2084.6013,right,1,left,left,eat,eat,avoid,neg,avoid-neg,1,1,760.5999999996275
sub-096,232,1,FALSE,right,avoid,neg,fungus22_crop.jpg,3,24,TRUE,231,2,2359.1812,96,EAT                                    DON'T EAT,2358.4507,2352.4124,2084.6013,right,2,right,right,not_eat,not_eat,avoid,neg,avoid-neg,1,1,730.5000000004657
sub-096,233,1,FALSE,right,avoid,neg,fungus31_crop.jpg,3,24,TRUE,232,2,2361.186,96,EAT                                    DON'T EAT,2360.469,2352.4124,2084.6013,right,2,right,right,not_eat,not_eat,avoid,neg,avoid-neg,1,1,717
sub-096,234,1,FALSE,right,avoid,neg,fungus9_crop.jpg,3,24,TRUE,233,2,2363.1748,96,EAT                                    DON'T EAT,2362.4873,2352.4124,2084.6013,right,2,right,right,not_eat,not_eat,avoid,neg,avoid-neg,1,1,687.5
sub-096,235,1,FALSE,right,avoid,neg,fungus21_crop.jpg,3,24,TRUE,234,2,2365.1738,96,EAT                                    DON'T EAT,2364.5056,2352.4124,2084.6013,right,2,right,right,not_eat,not_eat,avoid,neg,avoid-neg,1,1,668.1999999997206
sub-096,236,1,FALSE,right,avoid,neg,fungus11_crop.jpg,3,24,TRUE,235,2,2367.1997,96,EAT                                    DON'T EAT,2366.5242,2352.4124,2084.6013,right,2,right,right,not_eat,not_eat,avoid,neg,avoid-neg,1,1,675.5000000004657
sub-096,237,1,FALSE,right,avoid,neg,fungus18_crop.jpg,3,24,TRUE,236,2,2369.1536,96,EAT                                    DON'T EAT,2368.5425,2352.4124,2084.6013,right,2,right,right,not_eat,not_eat,avoid,neg,avoid-neg,1,1,611.1000000000931
sub-096,238,1,FALSE,right,avoid,neg,fungus25_crop.jpg,3,24,TRUE,237,2,2371.3208,96,EAT                                    DON'T EAT,2370.5608,2352.4124,2084.6013,right,2,right,right,not_eat,not_eat,avoid,neg,avoid-neg,1,1,759.9999999995343
sub-096,239,1,FALSE,right,avoid,neg,fungus7_crop.jpg,3,24,TRUE,238,2,2373.4165,96,EAT                                    DON'T EAT,2372.579,2352.4124,2084.6013,right,2,right,right,not_eat,not_eat,avoid,neg,avoid-neg,1,1,837.5
sub-096,240,1,TRUE,right,approach,neg,insect21_crop.jpg,3,24,TRUE,239,1,2375.3694,96,EAT                                    DON'T EAT,2374.5974,2352.4124,2084.6013,right,1,left,left,eat,eat,avoid,neg,avoid-neg,1,1,772
sub-096,241,2,TRUE,right,avoid,pos,meat40_crop.jpg,4,25,TRUE,240,2,2473.4272,96,EAT                                    DON'T EAT,2472.4956,2468.4753,2455.2388,left,2,right,right,not_eat,not_eat,approach,pos,approach-pos,1,1,931.6000000000931
sub-096,242,2,FALSE,right,approach,pos,cake32_crop.jpg,4,25,TRUE,241,1,2475.3176,96,EAT                                    DON'T EAT,2474.514,2468.4753,2455.2388,left,1,left,left,eat,eat,approach,pos,approach-pos,1,1,803.5999999996275
sub-096,243,2,FALSE,right,approach,pos,cake23_crop.jpg,4,25,TRUE,242,1,2477.2402,96,EAT                                    DON'T EAT,2476.5322,2468.4753,2455.2388,left,1,left,left,eat,eat,approach,pos,approach-pos,1,1,708
sub-096,244,2,FALSE,right,approach,pos,cake7_crop.jpg,4,25,TRUE,243,1,2479.2612,96,EAT                                    DON'T EAT,2478.5503,2468.4753,2455.2388,left,1,left,left,eat,eat,approach,pos,approach-pos,1,1,710.8999999999069
sub-096,245,2,FALSE,right,approach,pos,cake11_crop.jpg,4,25,TRUE,244,1,2481.27,96,EAT                                    DON'T EAT,2480.5688,2468.4753,2455.2388,left,1,left,left,eat,eat,approach,pos,approach-pos,1,1,701.2000000001863
sub-096,246,2,FALSE,right,approach,pos,cake28_crop.jpg,4,25,TRUE,245,1,2483.2869,96,EAT                                    DON'T EAT,2482.5872,2468.4753,2455.2388,left,1,left,left,eat,eat,approach,pos,approach-pos,1,1,699.7000000001863
sub-096,247,2,FALSE,right,approach,pos,cake9_crop.jpg,4,25,TRUE,246,1,2485.354,96,EAT                                    DON'T EAT,2484.6055,2468.4753,2455.2388,left,1,left,left,eat,eat,approach,pos,approach-pos,1,1,748.5
sub-096,248,2,FALSE,right,approach,pos,cake27_crop.jpg,4,25,TRUE,247,1,2487.385,96,EAT                                    DON'T EAT,2486.6238,2468.4753,2455.2388,left,1,left,left,eat,eat,approach,pos,approach-pos,1,1,761.2000000001863
sub-096,249,2,TRUE,right,avoid,neg,fungus5_crop.jpg,4,25,TRUE,248,2,2489.3833,96,EAT                                    DON'T EAT,2488.642,2468.4753,2455.2388,left,2,right,right,not_eat,not_eat,approach,pos,approach-pos,1,1,741.2999999998137
sub-096,250,2,FALSE,right,approach,pos,cake40_crop.jpg,4,25,TRUE,249,1,2491.3494,96,EAT                                    DON'T EAT,2490.6606,2468.4753,2455.2388,left,1,left,left,eat,eat,approach,pos,approach-pos,1,1,688.7999999998137
sub-096,251,3,FALSE,left,avoid,pos,meat1_crop.jpg,4,26,TRUE,250,2,2511.5935,96,EAT                                    DON'T EAT,2510.5767,2506.557,2455.2388,left,2,right,right,not_eat,not_eat,avoid,pos,avoid-pos,1,1,1016.7999999998137
sub-096,252,3,FALSE,left,avoid,pos,meat7_crop.jpg,4,26,TRUE,251,2,2513.2385,96,EAT                                    DON'T EAT,2512.5955,2506.557,2455.2388,left,2,right,right,not_eat,not_eat,avoid,pos,avoid-pos,1,1,643
sub-096,253,3,TRUE,left,approach,neg,insect15_crop.jpg,4,26,TRUE,252,1,2515.27,96,EAT                                    DON'T EAT,2514.614,2506.557,2455.2388,left,1,left,left,eat,eat,avoid,pos,avoid-pos,1,1,656
sub-096,254,3,TRUE,left,approach,pos,cake39_crop.jpg,4,26,TRUE,253,1,2517.3372,96,EAT                                    DON'T EAT,2516.632,2506.557,2455.2388,left,1,left,left,eat,eat,avoid,pos,avoid-pos,1,1,705.1999999997206
sub-096,255,3,FALSE,left,avoid,pos,meat39_crop.jpg,4,26,TRUE,254,2,2519.4731,96,EAT                                    DON'T EAT,2518.6501,2506.557,2455.2388,left,2,right,right,not_eat,not_eat,avoid,pos,avoid-pos,1,1,823.0000000004657
sub-096,256,3,FALSE,left,avoid,pos,meat9_crop.jpg,4,26,TRUE,255,2,2521.472,96,EAT                                    DON'T EAT,2520.669,2506.557,2455.2388,left,2,right,right,not_eat,not_eat,avoid,pos,avoid-pos,1,1,803
sub-096,257,3,FALSE,left,avoid,pos,meat25_crop.jpg,4,26,TRUE,256,2,2523.3696,96,EAT                                    DON'T EAT,2522.6868,2506.557,2455.2388,left,2,right,right,not_eat,not_eat,avoid,pos,avoid-pos,1,1,682.8000000002794
sub-096,258,3,FALSE,left,avoid,pos,meat29_crop.jpg,4,26,TRUE,257,2,2525.3623,96,EAT                                    DON'T EAT,2524.7053,2506.557,2455.2388,left,2,right,right,not_eat,not_eat,avoid,pos,avoid-pos,1,1,656.9999999995343
sub-096,259,3,FALSE,left,avoid,pos,meat8_crop.jpg,4,26,TRUE,258,2,2527.3418,96,EAT                                    DON'T EAT,2526.7234,2506.557,2455.2388,left,2,right,right,not_eat,not_eat,avoid,pos,avoid-pos,1,1,618.4000000003725
sub-096,260,3,FALSE,left,avoid,pos,meat33_crop.jpg,4,26,TRUE,259,2,2529.3865,96,EAT                                    DON'T EAT,2528.7422,2506.557,2455.2388,left,2,right,right,not_eat,not_eat,avoid,pos,avoid-pos,1,1,644.2999999998137
sub-096,261,3,FALSE,right,avoid,neg,fungus4_crop.jpg,4,27,TRUE,260,2,2546.1147,96,EAT                                    DON'T EAT,2545.2393,2541.2192,2455.2388,left,2,right,right,not_eat,not_eat,avoid,neg,avoid-neg,1,1,875.3999999999069
sub-096,262,3,FALSE,right,avoid,neg,fungus12_crop.jpg,4,27,TRUE,261,2,2548.2168,96,EAT                                    DON'T EAT,2547.2576,2541.2192,2455.2388,left,2,right,right,not_eat,not_eat,avoid,neg,avoid-neg,1,1,959.2000000001863
sub-096,263,3,TRUE,right,approach,pos,cake13_crop.jpg,4,27,TRUE,262,1,2550.0085,96,EAT                                    DON'T EAT,2549.2761,2541.2192,2455.2388,left,1,left,left,eat,eat,avoid,neg,avoid-neg,1,1,732.3999999999069
sub-096,264,3,FALSE,right,avoid,neg,fungus28_crop.jpg,4,27,TRUE,263,2,2552.0864,96,EAT                                    DON'T EAT,2551.2944,2541.2192,2455.2388,left,2,right,right,not_eat,not_eat,avoid,neg,avoid-neg,1,1,792
sub-096,265,3,FALSE,right,avoid,neg,fungus38_crop.jpg,4,27,TRUE,264,2,2553.9446,96,EAT                                    DON'T EAT,2553.3125,2541.2192,2455.2388,left,2,right,right,not_eat,not_eat,avoid,neg,avoid-neg,1,1,632.0999999996275
sub-096,266,3,FALSE,right,avoid,neg,fungus23_crop.jpg,4,27,TRUE,265,2,2556.131,96,EAT                                    DON'T EAT,2555.3308,2541.2192,2455.2388,left,2,right,right,not_eat,not_eat,avoid,neg,avoid-neg,1,1,800.1999999997206
sub-096,267,3,TRUE,right,approach,neg,insect26_crop.jpg,4,27,TRUE,266,1,2558.0066,96,EAT                                    DON'T EAT,2557.3496,2541.2192,2455.2388,left,1,left,left,eat,eat,avoid,neg,avoid-neg,1,1,657
sub-096,268,3,FALSE,right,avoid,neg,fungus8_crop.jpg,4,27,TRUE,267,2,2560.022,96,EAT                                    DON'T EAT,2559.3677,2541.2192,2455.2388,left,2,right,right,not_eat,not_eat,avoid,neg,avoid-neg,1,1,654.3000000002794
sub-096,269,3,FALSE,right,avoid,neg,fungus17_crop.jpg,4,27,TRUE,268,2,2562.0732,96,EAT                                    DON'T EAT,2561.386,2541.2192,2455.2388,left,2,right,right,not_eat,not_eat,avoid,neg,avoid-neg,1,1,687.1999999997206
sub-096,270,3,FALSE,right,avoid,neg,fungus24_crop.jpg,4,27,TRUE,269,2,2564.0679,96,EAT                                    DON'T EAT,2563.4043,2541.2192,2455.2388,left,2,right,right,not_eat,not_eat,avoid,neg,avoid-neg,1,1,663.5999999996275
sub-096,271,1,TRUE,left,approach,neg,insect13_crop.jpg,4,28,TRUE,270,1,2582.583,96,EAT                                    DON'T EAT,2581.703,2577.6829,2455.2388,left,1,left,left,eat,eat,avoid,neg,avoid-neg,1,1,880
sub-096,272,1,FALSE,left,avoid,neg,fungus23_crop.jpg,4,28,TRUE,271,2,2584.4094,96,EAT                                    DON'T EAT,2583.721,2577.6829,2455.2388,left,2,right,right,not_eat,not_eat,avoid,neg,avoid-neg,1,1,688.3999999999069
sub-096,273,1,TRUE,left,approach,pos,cake22_crop.jpg,4,28,TRUE,272,1,2586.4263,96,EAT                                    DON'T EAT,2585.7397,2577.6829,2455.2388,left,1,left,left,eat,eat,avoid,neg,avoid-neg,1,1,686.6000000000931
sub-096,274,1,FALSE,left,avoid,neg,fungus6_crop.jpg,4,28,TRUE,273,2,2588.5703,96,EAT                                    DON'T EAT,2587.758,2577.6829,2455.2388,left,2,right,right,not_eat,not_eat,avoid,neg,avoid-neg,1,1,812.2999999998137
sub-096,275,1,FALSE,left,avoid,neg,fungus27_crop.jpg,4,28,TRUE,274,2,2590.5144,96,EAT                                    DON'T EAT,2589.7764,2577.6829,2455.2388,left,2,right,right,not_eat,not_eat,avoid,neg,avoid-neg,1,1,737.9999999995343
sub-096,276,1,FALSE,left,avoid,neg,fungus3_crop.jpg,4,28,TRUE,275,2,2592.5232,96,EAT                                    DON'T EAT,2591.7947,2577.6829,2455.2388,left,2,right,right,not_eat,not_eat,avoid,neg,avoid-neg,1,1,728.5000000004657
sub-096,277,1,FALSE,left,avoid,neg,fungus28_crop.jpg,4,28,TRUE,276,2,2594.4573,96,EAT                                    DON'T EAT,2593.813,2577.6829,2455.2388,left,2,right,right,not_eat,not_eat,avoid,neg,avoid-neg,1,1,644.2999999998137
sub-096,278,1,FALSE,left,avoid,neg,fungus33_crop.jpg,4,28,TRUE,277,2,2596.6423,96,EAT                                    DON'T EAT,2595.831,2577.6829,2455.2388,left,2,right,right,not_eat,not_eat,avoid,neg,avoid-neg,1,1,811.2999999998137
sub-096,279,1,FALSE,left,avoid,neg,fungus1_crop.jpg,4,28,TRUE,278,2,2598.7034,96,EAT                                    DON'T EAT,2597.8496,2577.6829,2455.2388,left,2,right,right,not_eat,not_eat,avoid,neg,avoid-neg,1,1,853.7999999998137
sub-096,280,1,FALSE,left,avoid,neg,fungus17_crop.jpg,4,28,TRUE,279,2,2600.6401,96,EAT                                    DON'T EAT,2599.8682,2577.6829,2455.2388,left,2,right,right,not_eat,not_eat,avoid,neg,avoid-neg,1,1,771.9000000003725
sub-096,281,3,FALSE,right,approach,neg,insect36_crop.jpg,4,29,TRUE,280,1,2617.4456,96,EAT                                    DON'T EAT,2616.6653,2612.6448,2455.2388,left,1,left,left,eat,eat,approach,neg,approach-neg,1,1,780.2999999998137
sub-096,282,3,FALSE,right,approach,neg,insect34_crop.jpg,4,29,TRUE,281,1,2619.424,96,EAT                                    DON'T EAT,2618.6836,2612.6448,2455.2388,left,1,left,left,eat,eat,approach,neg,approach-neg,1,1,740.4000000003725
sub-096,283,3,FALSE,right,approach,neg,insect19_crop.jpg,4,29,TRUE,282,1,2621.3994,96,EAT                                    DON'T EAT,2620.702,2612.6448,2455.2388,left,1,left,left,eat,eat,approach,neg,approach-neg,1,1,697.3999999999069
sub-096,284,3,FALSE,right,approach,neg,insect3_crop.jpg,4,29,TRUE,283,1,2623.5332,96,EAT                                    DON'T EAT,2622.7202,2612.6448,2455.2388,left,1,left,left,eat,eat,approach,neg,approach-neg,1,1,812.9999999995343
sub-096,285,3,FALSE,right,approach,neg,insect30_crop.jpg,4,29,TRUE,284,1,2625.5923,96,EAT                                    DON'T EAT,2624.7388,2612.6448,2455.2388,left,1,left,left,eat,eat,approach,neg,approach-neg,1,1,853.4999999995343
sub-096,286,3,FALSE,right,approach,neg,insect28_crop.jpg,4,29,TRUE,285,1,2627.7295,96,EAT                                    DON'T EAT,2626.757,2612.6448,2455.2388,left,1,left,left,eat,eat,approach,neg,approach-neg,1,1,972.5
sub-096,287,3,FALSE,right,approach,neg,insect5_crop.jpg,4,29,TRUE,286,1,2629.6646,96,EAT                                    DON'T EAT,2628.7754,2612.6448,2455.2388,left,1,left,left,eat,eat,approach,neg,approach-neg,1,1,889.2000000001863
sub-096,288,3,TRUE,right,avoid,neg,fungus32_crop.jpg,4,29,TRUE,287,2,2631.441,96,EAT                                    DON'T EAT,2630.794,2612.6448,2455.2388,left,2,right,right,not_eat,not_eat,approach,neg,approach-neg,1,1,647
sub-096,289,3,FALSE,right,approach,neg,insect9_crop.jpg,4,29,TRUE,288,1,2633.5066,96,EAT                                    DON'T EAT,2632.812,2612.6448,2455.2388,left,1,left,left,eat,eat,approach,neg,approach-neg,1,1,694.6000000000931
sub-096,290,3,TRUE,right,avoid,pos,meat1_crop.jpg,4,29,TRUE,289,2,2635.5713,96,EAT                                    DON'T EAT,2634.8303,2612.6448,2455.2388,left,2,right,right,not_eat,not_eat,approach,neg,approach-neg,1,1,741
sub-096,291,2,FALSE,right,avoid,neg,fungus2_crop.jpg,4,30,TRUE,290,2,2653.3042,96,EAT                                    DON'T EAT,2652.4785,2648.4583,2455.2388,left,2,right,right,not_eat,not_eat,avoid,neg,avoid-neg,1,1,825.7000000001863
sub-096,292,2,FALSE,right,avoid,neg,fungus1_crop.jpg,4,30,TRUE,291,2,2655.0486,96,EAT                                    DON'T EAT,2654.4968,2648.4583,2455.2388,left,2,right,right,not_eat,not_eat,avoid,neg,avoid-neg,1,1,551.8000000002794
sub-096,293,2,FALSE,right,avoid,neg,fungus34_crop.jpg,4,30,TRUE,292,2,2657.246,96,EAT                                    DON'T EAT,2656.5151,2648.4583,2455.2388,left,2,right,right,not_eat,not_eat,avoid,neg,avoid-neg,1,1,730.8999999999069
sub-096,294,2,FALSE,right,avoid,neg,fungus16_crop.jpg,4,30,TRUE,293,2,2659.2102,96,EAT                                    DON'T EAT,2658.5334,2648.4583,2455.2388,left,2,right,right,not_eat,not_eat,avoid,neg,avoid-neg,1,1,676.8000000002794
sub-096,295,2,FALSE,right,avoid,neg,fungus40_crop.jpg,4,30,TRUE,294,2,2661.3975,96,EAT                                    DON'T EAT,2660.5518,2648.4583,2455.2388,left,2,right,right,not_eat,not_eat,avoid,neg,avoid-neg,1,1,845.6999999997206
sub-096,296,2,TRUE,right,approach,neg,insect20_crop.jpg,4,30,TRUE,295,1,2663.2913,96,EAT                                    DON'T EAT,2662.5703,2648.4583,2455.2388,left,1,left,left,eat,eat,avoid,neg,avoid-neg,1,1,721
sub-096,297,2,FALSE,right,avoid,neg,fungus39_crop.jpg,4,30,TRUE,296,2,2665.2725,96,EAT                                    DON'T EAT,2664.5886,2648.4583,2455.2388,left,2,right,right,not_eat,not_eat,avoid,neg,avoid-neg,1,1,683.8999999999069
sub-096,298,2,FALSE,right,avoid,neg,fungus27_crop.jpg,4,30,TRUE,297,2,2667.3464,96,EAT                                    DON'T EAT,2666.607,2648.4583,2455.2388,left,2,right,right,not_eat,not_eat,avoid,neg,avoid-neg,1,1,739.3999999999069
sub-096,299,2,FALSE,right,avoid,neg,fungus26_crop.jpg,4,30,TRUE,298,2,2669.279,96,EAT                                    DON'T EAT,2668.6252,2648.4583,2455.2388,left,2,right,right,not_eat,not_eat,avoid,neg,avoid-neg,1,1,653.8000000002794
sub-096,300,2,TRUE,right,approach,pos,cake20_crop.jpg,4,30,TRUE,299,1,2671.457,96,EAT                                    DON'T EAT,2670.6436,2648.4583,2455.2388,left,1,left,left,eat,eat,avoid,neg,avoid-neg,1,1,813.3999999999069
sub-096,301,1,FALSE,right,approach,pos,cake35_crop.jpg,4,31,TRUE,300,1,2690.7158,96,EAT                                    DON'T EAT,2690.0596,2686.0396,2455.2388,left,1,left,left,eat,eat,approach,pos,approach-pos,1,1,656.1999999997206
sub-096,302,1,FALSE,right,approach,pos,cake10_crop.jpg,4,31,TRUE,301,1,2692.724,96,EAT                                    DON'T EAT,2692.0781,2686.0396,2455.2388,left,1,left,left,eat,eat,approach,pos,approach-pos,1,1,645.8999999999069
sub-096,303,1,FALSE,right,approach,pos,cake5_crop.jpg,4,31,TRUE,302,1,2694.7305,96,EAT                                    DON'T EAT,2694.0964,2686.0396,2455.2388,left,1,left,left,eat,eat,approach,pos,approach-pos,1,1,634.1000000000931
sub-096,304,1,FALSE,right,approach,pos,cake24_crop.jpg,4,31,TRUE,303,1,2696.7717,96,EAT                                    DON'T EAT,2696.1147,2686.0396,2455.2388,left,1,left,left,eat,eat,approach,pos,approach-pos,1,1,656.9999999995343
sub-096,305,1,FALSE,right,approach,pos,cake30_crop.jpg,4,31,TRUE,304,1,2698.8298,96,EAT                                    DON'T EAT,2698.133,2686.0396,2455.2388,left,1,left,left,eat,eat,approach,pos,approach-pos,1,1,696.7999999998137
sub-096,306,1,FALSE,right,approach,pos,cake1_crop.jpg,4,31,TRUE,305,1,2700.7954,96,EAT                                    DON'T EAT,2700.1516,2686.0396,2455.2388,left,1,left,left,eat,eat,approach,pos,approach-pos,1,1,643.7999999998137
sub-096,307,1,FALSE,right,approach,pos,cake36_crop.jpg,4,31,TRUE,306,1,2702.7732,96,EAT                                    DON'T EAT,2702.1697,2686.0396,2455.2388,left,1,left,left,eat,eat,approach,pos,approach-pos,1,1,603.5000000004657
sub-096,308,1,TRUE,right,avoid,neg,fungus10_crop.jpg,4,31,TRUE,307,2,2704.8652,96,EAT                                    DON'T EAT,2704.1882,2686.0396,2455.2388,left,2,right,right,not_eat,not_eat,approach,pos,approach-pos,1,1,677
sub-096,309,1,TRUE,right,avoid,pos,meat24_crop.jpg,4,31,TRUE,308,2,2706.8813,96,EAT                                    DON'T EAT,2706.2065,2686.0396,2455.2388,left,2,right,right,not_eat,not_eat,approach,pos,approach-pos,1,1,674.7999999998137
sub-096,310,1,FALSE,right,approach,pos,cake14_crop.jpg,4,31,TRUE,309,1,2708.8857,96,EAT                                    DON'T EAT,2708.2244,2686.0396,2455.2388,left,1,left,left,eat,eat,approach,pos,approach-pos,1,1,661.2999999998137
sub-096,311,3,TRUE,right,avoid,pos,meat2_crop.jpg,4,32,TRUE,310,2,2725.9163,96,EAT                                    DON'T EAT,2725.189,2721.169,2455.2388,left,2,right,right,not_eat,not_eat,approach,pos,approach-pos,1,1,727.2999999998137
sub-096,312,3,FALSE,right,approach,pos,cake19_crop.jpg,4,32,TRUE,311,1,2727.8716,96,EAT                                    DON'T EAT,2727.2073,2721.169,2455.2388,left,1,left,left,eat,eat,approach,pos,approach-pos,1,1,664.3000000002794
sub-096,313,3,FALSE,right,approach,pos,cake8_crop.jpg,4,32,TRUE,312,1,2729.9348,96,EAT                                    DON'T EAT,2729.2258,2721.169,2455.2388,left,1,left,left,eat,eat,approach,pos,approach-pos,1,1,708.9999999995343
sub-096,314,3,FALSE,right,approach,pos,cake31_crop.jpg,4,32,TRUE,313,1,2731.8464,96,EAT                                    DON'T EAT,2731.244,2721.169,2455.2388,left,1,left,left,eat,eat,approach,pos,approach-pos,1,1,602.3999999999069
sub-096,315,3,FALSE,right,approach,pos,cake29_crop.jpg,4,32,TRUE,314,1,2733.9067,96,EAT                                    DON'T EAT,2733.2622,2721.169,2455.2388,left,1,left,left,eat,eat,approach,pos,approach-pos,1,1,644.5
sub-096,316,3,FALSE,right,approach,pos,cake18_crop.jpg,4,32,TRUE,315,1,2735.967,96,EAT                                    DON'T EAT,2735.2805,2721.169,2455.2388,left,1,left,left,eat,eat,approach,pos,approach-pos,1,1,686.5
sub-096,317,3,FALSE,right,approach,pos,cake34_crop.jpg,4,32,TRUE,316,1,2737.9956,96,EAT                                    DON'T EAT,2737.299,2721.169,2455.2388,left,1,left,left,eat,eat,approach,pos,approach-pos,1,1,696.6000000000931
sub-096,318,3,FALSE,right,approach,pos,cake25_crop.jpg,4,32,TRUE,317,1,2739.9617,96,EAT                                    DON'T EAT,2739.3171,2721.169,2455.2388,left,1,left,left,eat,eat,approach,pos,approach-pos,1,1,644.5999999996275
sub-096,319,3,TRUE,right,avoid,neg,fungus15_crop.jpg,4,32,TRUE,318,2,2742.0427,96,EAT                                    DON'T EAT,2741.3357,2721.169,2455.2388,left,2,right,right,not_eat,not_eat,approach,pos,approach-pos,1,1,707
sub-096,320,3,FALSE,right,approach,pos,cake38_crop.jpg,4,32,TRUE,319,1,2744.0522,96,EAT                                    DON'T EAT,2743.354,2721.169,2455.2388,left,1,left,left,eat,eat,approach,pos,approach-pos,1,1,698.2000000001863
