subject,trial_number,n_block,catch,hand,mot,val,stim_name,run_number,num_block,ran,order,response,time_of_response,subject_number,left_side_resp_label,trial_onset,blk_instr_onset,baseline_onset,response_hand,response_cleaned,response_lat,response_lat_cleaned,response_meaning,response_meaning_cleaned,condition_mot,condition_val,condition,correct,correct_cleaned,rt
sub-108,1,3,TRUE,right,avoid,neg,fungus9_crop.jpg,1,1,TRUE,0,2,1334.3531,108,EAT                                    DON'T EAT,1332.3625,1328.3423,1317.297,right,2,right,right,not_eat,not_eat,approach,pos,approach-pos,1,1,1990.6000000000931
sub-108,2,3,FALSE,right,approach,pos,cake26_crop.jpg,1,1,TRUE,1,1,1335.7784,108,EAT                                    DON'T EAT,1334.3805,1328.3423,1317.297,right,1,left,left,eat,eat,approach,pos,approach-pos,1,1,1397.8999999999069
sub-108,3,3,FALSE,right,approach,pos,cake31_crop.jpg,1,1,TRUE,2,1,1337.1768,108,EAT                                    DON'T EAT,1336.3987,1328.3423,1317.297,right,1,left,left,eat,eat,approach,pos,approach-pos,1,1,778.1000000000931
sub-108,4,3,FALSE,right,approach,pos,cake4_crop.jpg,1,1,TRUE,3,1,1339.2307,108,EAT                                    DON'T EAT,1338.4203,1328.3423,1317.297,right,1,left,left,eat,eat,approach,pos,approach-pos,1,1,810.4000000001397
sub-108,5,3,FALSE,right,approach,pos,cake9_crop.jpg,1,1,TRUE,4,1,1341.2172,108,EAT                                    DON'T EAT,1340.438,1328.3423,1317.297,right,1,left,left,eat,eat,approach,pos,approach-pos,1,1,779.1999999999534
sub-108,6,3,FALSE,right,approach,pos,cake36_crop.jpg,1,1,TRUE,5,1,1343.2549,108,EAT                                    DON'T EAT,1342.454,1328.3423,1317.297,right,1,left,left,eat,eat,approach,pos,approach-pos,1,1,800.8999999999069
sub-108,7,3,FALSE,right,approach,pos,cake20_crop.jpg,1,1,TRUE,6,1,1345.2638,108,EAT                                    DON'T EAT,1344.4724,1328.3423,1317.297,right,1,left,left,eat,eat,approach,pos,approach-pos,1,1,791.3999999999069
sub-108,8,3,TRUE,right,avoid,pos,meat10_crop.jpg,1,1,TRUE,7,2,1347.5464,108,EAT                                    DON'T EAT,1346.4906,1328.3423,1317.297,right,2,right,right,not_eat,not_eat,approach,pos,approach-pos,1,1,1055.7999999998137
sub-108,9,3,FALSE,right,approach,pos,cake13_crop.jpg,1,1,TRUE,8,1,1349.4357,108,EAT                                    DON'T EAT,1348.509,1328.3423,1317.297,right,1,left,left,eat,eat,approach,pos,approach-pos,1,1,926.6999999999534
sub-108,10,3,FALSE,right,approach,pos,cake12_crop.jpg,1,1,TRUE,9,1,1351.8242,108,EAT                                    DON'T EAT,1350.5275,1328.3423,1317.297,right,1,left,left,eat,eat,approach,pos,approach-pos,1,1,1296.6999999999534
sub-108,11,0,FALSE,left,approach,pos,cake19_crop.jpg,1,2,TRUE,10,1,1370.8711,108,EAT                                    DON'T EAT,1369.5431,1365.5231,1317.297,right,1,left,left,eat,eat,approach,pos,approach-pos,1,1,1328
sub-108,12,0,FALSE,left,approach,pos,cake22_crop.jpg,1,2,TRUE,11,1,1372.1534,108,EAT                                    DON'T EAT,1371.5614,1365.5231,1317.297,right,1,left,left,eat,eat,approach,pos,approach-pos,1,1,591.9999999997672
sub-108,13,0,TRUE,left,avoid,pos,meat18_crop.jpg,1,2,TRUE,12,2,1374.6975,108,EAT                                    DON'T EAT,1373.5796,1365.5231,1317.297,right,2,right,right,not_eat,not_eat,approach,pos,approach-pos,1,1,1117.8999999999069
sub-108,14,0,TRUE,left,avoid,neg,fungus16_crop.jpg,1,2,TRUE,13,2,1376.7168,108,EAT                                    DON'T EAT,1375.5979,1365.5231,1317.297,right,2,right,right,not_eat,not_eat,approach,pos,approach-pos,1,1,1118.8999999999069
sub-108,15,0,FALSE,left,approach,pos,cake23_crop.jpg,1,2,TRUE,14,1,1378.4281,108,EAT                                    DON'T EAT,1377.6166,1365.5231,1317.297,right,1,left,left,eat,eat,approach,pos,approach-pos,1,1,811.5
sub-108,16,0,FALSE,left,approach,pos,cake29_crop.jpg,1,2,TRUE,15,1,1380.3688,108,EAT                                    DON'T EAT,1379.6348,1365.5231,1317.297,right,1,left,left,eat,eat,approach,pos,approach-pos,1,1,734
sub-108,17,0,FALSE,left,approach,pos,cake20_crop.jpg,1,2,TRUE,16,1,1382.2821,108,EAT                                    DON'T EAT,1381.653,1365.5231,1317.297,right,1,left,left,eat,eat,approach,pos,approach-pos,1,1,629.0999999998603
sub-108,18,0,FALSE,left,approach,pos,cake32_crop.jpg,1,2,TRUE,17,1,1384.4943,108,EAT                                    DON'T EAT,1383.6713,1365.5231,1317.297,right,1,left,left,eat,eat,approach,pos,approach-pos,1,1,823
sub-108,19,0,FALSE,left,approach,pos,cake18_crop.jpg,1,2,TRUE,18,1,1386.5225,108,EAT                                    DON'T EAT,1385.6898,1365.5231,1317.297,right,1,left,left,eat,eat,approach,pos,approach-pos,1,1,832.6999999999534
sub-108,20,0,FALSE,left,approach,pos,cake10_crop.jpg,1,2,TRUE,19,1,1388.4346,108,EAT                                    DON'T EAT,1387.7079,1365.5231,1317.297,right,1,left,left,eat,eat,approach,pos,approach-pos,1,1,726.6999999999534
sub-108,21,0,FALSE,right,approach,pos,cake18_crop.jpg,1,3,TRUE,20,1,1405.686,108,EAT                                    DON'T EAT,1404.8225,1400.8024,1317.297,right,1,left,left,eat,eat,approach,pos,approach-pos,1,1,863.5
sub-108,22,0,FALSE,right,approach,pos,cake30_crop.jpg,1,3,TRUE,21,1,1407.4121,108,EAT                                    DON'T EAT,1406.8407,1400.8024,1317.297,right,1,left,left,eat,eat,approach,pos,approach-pos,1,1,571.4000000001397
sub-108,23,0,TRUE,right,avoid,neg,fungus5_crop.jpg,1,3,TRUE,22,2,1409.849,108,EAT                                    DON'T EAT,1408.8591,1400.8024,1317.297,right,2,right,right,not_eat,not_eat,approach,pos,approach-pos,1,1,989.9000000001397
sub-108,24,0,FALSE,right,approach,pos,cake24_crop.jpg,1,3,TRUE,23,1,1411.6887,108,EAT                                    DON'T EAT,1410.8777,1400.8024,1317.297,right,1,left,left,eat,eat,approach,pos,approach-pos,1,1,811
sub-108,25,0,FALSE,right,approach,pos,cake14_crop.jpg,1,3,TRUE,24,1,1413.4648,108,EAT                                    DON'T EAT,1412.8959,1400.8024,1317.297,right,1,left,left,eat,eat,approach,pos,approach-pos,1,1,568.9000000001397
sub-108,26,0,FALSE,right,approach,pos,cake25_crop.jpg,1,3,TRUE,25,1,1415.5254,108,EAT                                    DON'T EAT,1414.9142,1400.8024,1317.297,right,1,left,left,eat,eat,approach,pos,approach-pos,1,1,611.1999999999534
sub-108,27,0,TRUE,right,avoid,pos,meat28_crop.jpg,1,3,TRUE,26,2,1417.8939,108,EAT                                    DON'T EAT,1416.9325,1400.8024,1317.297,right,2,right,right,not_eat,not_eat,approach,pos,approach-pos,1,1,961.4000000001397
sub-108,28,0,FALSE,right,approach,pos,cake2_crop.jpg,1,3,TRUE,27,1,1419.689,108,EAT                                    DON'T EAT,1418.9506,1400.8024,1317.297,right,1,left,left,eat,eat,approach,pos,approach-pos,1,1,738.4000000001397
sub-108,29,0,FALSE,right,approach,pos,cake16_crop.jpg,1,3,TRUE,28,1,1422.4279,108,EAT                                    DON'T EAT,1420.9686,1400.8024,1317.297,right,1,left,left,eat,eat,approach,pos,approach-pos,1,1,1459.3000000000466
sub-108,30,0,FALSE,right,approach,pos,cake6_crop.jpg,1,3,TRUE,29,1,1424.0721,108,EAT                                    DON'T EAT,1422.9875,1400.8024,1317.297,right,1,left,left,eat,eat,approach,pos,approach-pos,1,1,1084.6000000000931
sub-108,31,1,TRUE,right,avoid,neg,fungus40_crop.jpg,1,4,TRUE,30,2,1443.2255,108,EAT                                    DON'T EAT,1442.0868,1438.0668,1317.297,right,2,right,right,not_eat,not_eat,approach,neg,approach-neg,1,1,1138.6999999999534
sub-108,32,1,TRUE,right,avoid,pos,meat7_crop.jpg,1,4,TRUE,31,2,1445.6344,108,EAT                                    DON'T EAT,1444.1052,1438.0668,1317.297,right,2,right,right,not_eat,not_eat,approach,neg,approach-neg,1,1,1529.1999999999534
sub-108,33,1,FALSE,right,approach,neg,insect31_crop.jpg,1,4,TRUE,32,1,1447.0713,108,EAT                                    DON'T EAT,1446.1234,1438.0668,1317.297,right,1,left,left,eat,eat,approach,neg,approach-neg,1,1,947.9000000001397
sub-108,34,1,FALSE,right,approach,neg,insect34_crop.jpg,1,4,TRUE,33,1,1448.8246,108,EAT                                    DON'T EAT,1448.1417,1438.0668,1317.297,right,1,left,left,eat,eat,approach,neg,approach-neg,1,1,682.8999999999069
sub-108,35,1,FALSE,right,approach,neg,insect11_crop.jpg,1,4,TRUE,34,1,1450.7706,108,EAT                                    DON'T EAT,1450.16,1438.0668,1317.297,right,1,left,left,eat,eat,approach,neg,approach-neg,1,1,610.6000000000931
sub-108,36,1,FALSE,right,approach,neg,insect36_crop.jpg,1,4,TRUE,35,1,1452.8203,108,EAT                                    DON'T EAT,1452.1781,1438.0668,1317.297,right,1,left,left,eat,eat,approach,neg,approach-neg,1,1,642.1999999999534
sub-108,37,1,FALSE,right,approach,neg,insect14_crop.jpg,1,4,TRUE,36,1,1454.8386,108,EAT                                    DON'T EAT,1454.1968,1438.0668,1317.297,right,1,left,left,eat,eat,approach,neg,approach-neg,1,1,641.8000000000466
sub-108,38,1,FALSE,right,approach,neg,insect16_crop.jpg,1,4,TRUE,37,1,1456.9014,108,EAT                                    DON'T EAT,1456.2152,1438.0668,1317.297,right,1,left,left,eat,eat,approach,neg,approach-neg,1,1,686.1999999997206
sub-108,39,1,FALSE,right,approach,neg,insect33_crop.jpg,1,4,TRUE,38,1,1458.7731,108,EAT                                    DON'T EAT,1458.2334,1438.0668,1317.297,right,1,left,left,eat,eat,approach,neg,approach-neg,1,1,539.6999999999534
sub-108,40,1,FALSE,right,approach,neg,insect4_crop.jpg,1,4,TRUE,39,1,1460.8734,108,EAT                                    DON'T EAT,1460.2516,1438.0668,1317.297,right,1,left,left,eat,eat,approach,neg,approach-neg,1,1,621.7999999998137
sub-108,41,0,TRUE,left,approach,neg,insect38_crop.jpg,1,5,TRUE,40,1,1477.3375,108,EAT                                    DON'T EAT,1476.4319,1472.4119,1317.297,right,1,left,left,eat,eat,avoid,pos,avoid-pos,1,1,905.5999999998603
sub-108,42,0,FALSE,left,avoid,pos,meat4_crop.jpg,1,5,TRUE,41,2,1479.4009,108,EAT                                    DON'T EAT,1478.4502,1472.4119,1317.297,right,2,right,right,not_eat,not_eat,avoid,pos,avoid-pos,1,1,950.7000000001863
sub-108,43,0,TRUE,left,approach,pos,cake27_crop.jpg,1,5,TRUE,42,1,1481.4097,108,EAT                                    DON'T EAT,1480.4685,1472.4119,1317.297,right,1,left,left,eat,eat,avoid,pos,avoid-pos,1,1,941.1999999999534
sub-108,44,0,FALSE,left,avoid,pos,meat25_crop.jpg,1,5,TRUE,43,2,1483.5822,108,EAT                                    DON'T EAT,1482.4869,1472.4119,1317.297,right,2,right,right,not_eat,not_eat,avoid,pos,avoid-pos,1,1,1095.2999999998137
sub-108,45,0,FALSE,left,avoid,pos,meat6_crop.jpg,1,5,TRUE,44,2,1485.4229,108,EAT                                    DON'T EAT,1484.5054,1472.4119,1317.297,right,2,right,right,not_eat,not_eat,avoid,pos,avoid-pos,1,1,917.5000000002328
sub-108,46,0,FALSE,left,avoid,pos,meat15_crop.jpg,1,5,TRUE,45,2,1487.3989,108,EAT                                    DON'T EAT,1486.5236,1472.4119,1317.297,right,2,right,right,not_eat,not_eat,avoid,pos,avoid-pos,1,1,875.2999999998137
sub-108,47,0,FALSE,left,avoid,pos,meat3_crop.jpg,1,5,TRUE,46,2,1489.8973,108,EAT                                    DON'T EAT,1488.5419,1472.4119,1317.297,right,2,right,right,not_eat,not_eat,avoid,pos,avoid-pos,1,1,1355.4000000001397
sub-108,48,0,FALSE,left,avoid,pos,meat35_crop.jpg,1,5,TRUE,47,2,1491.4542,108,EAT                                    DON'T EAT,1490.5602,1472.4119,1317.297,right,2,right,right,not_eat,not_eat,avoid,pos,avoid-pos,1,1,894
sub-108,49,0,FALSE,left,avoid,pos,meat32_crop.jpg,1,5,TRUE,48,2,1493.2769,108,EAT                                    DON'T EAT,1492.5786,1472.4119,1317.297,right,2,right,right,not_eat,not_eat,avoid,pos,avoid-pos,1,1,698.3000000000466
sub-108,50,0,FALSE,left,avoid,pos,meat17_crop.jpg,1,5,TRUE,49,2,1495.6191,108,EAT                                    DON'T EAT,1494.597,1472.4119,1317.297,right,2,right,right,not_eat,not_eat,avoid,pos,avoid-pos,1,1,1022.0999999998603
sub-108,51,2,TRUE,right,avoid,neg,fungus20_crop.jpg,1,6,TRUE,50,2,1512.2922,108,EAT                                    DON'T EAT,1511.2775,1507.2574,1317.297,right,2,right,right,not_eat,not_eat,approach,neg,approach-neg,1,1,1014.7000000001863
sub-108,52,2,FALSE,right,approach,neg,insect1_crop.jpg,1,6,TRUE,51,1,1514.3273,108,EAT                                    DON'T EAT,1513.2958,1507.2574,1317.297,right,1,left,left,eat,eat,approach,neg,approach-neg,1,1,1031.4999999997672
sub-108,53,2,FALSE,right,approach,neg,insect28_crop.jpg,1,6,TRUE,52,1,1516.3579,108,EAT                                    DON'T EAT,1515.3141,1507.2574,1317.297,right,1,left,left,eat,eat,approach,neg,approach-neg,1,1,1043.7999999998137
sub-108,54,2,FALSE,right,approach,neg,insect15_crop.jpg,1,6,TRUE,53,1,1518.0631,108,EAT                                    DON'T EAT,1517.3324,1507.2574,1317.297,right,1,left,left,eat,eat,approach,neg,approach-neg,1,1,730.7000000001863
sub-108,55,2,FALSE,right,approach,neg,insect17_crop.jpg,1,6,TRUE,54,1,1519.9608,108,EAT                                    DON'T EAT,1519.3505,1507.2574,1317.297,right,1,left,left,eat,eat,approach,neg,approach-neg,1,1,610.3000000000466
sub-108,56,2,FALSE,right,approach,neg,insect5_crop.jpg,1,6,TRUE,55,1,1521.9384,108,EAT                                    DON'T EAT,1521.3691,1507.2574,1317.297,right,1,left,left,eat,eat,approach,neg,approach-neg,1,1,569.3000000000466
sub-108,57,2,TRUE,right,avoid,pos,meat18_crop.jpg,1,6,TRUE,56,2,1524.1981,108,EAT                                    DON'T EAT,1523.3876,1507.2574,1317.297,right,2,right,right,not_eat,not_eat,approach,neg,approach-neg,1,1,810.5
sub-108,58,2,FALSE,right,approach,neg,insect2_crop.jpg,1,6,TRUE,57,1,1526.4512,108,EAT                                    DON'T EAT,1525.4054,1507.2574,1317.297,right,1,left,left,eat,eat,approach,neg,approach-neg,1,1,1045.7999999998137
sub-108,59,2,FALSE,right,approach,neg,insect29_crop.jpg,1,6,TRUE,58,1,1528.1622,108,EAT                                    DON'T EAT,1527.4242,1507.2574,1317.297,right,1,left,left,eat,eat,approach,neg,approach-neg,1,1,738
sub-108,60,2,FALSE,right,approach,neg,insect7_crop.jpg,1,6,TRUE,59,1,1530.0018,108,EAT                                    DON'T EAT,1529.4425,1507.2574,1317.297,right,1,left,left,eat,eat,approach,neg,approach-neg,1,1,559.3000000000466
sub-108,61,1,FALSE,right,approach,pos,cake11_crop.jpg,1,7,TRUE,60,1,1548.071,108,EAT                                    DON'T EAT,1547.3741,1543.3539,1317.297,right,1,left,left,eat,eat,approach,pos,approach-pos,1,1,696.8999999999069
sub-108,62,1,TRUE,right,avoid,neg,fungus30_crop.jpg,1,7,TRUE,61,2,1550.5641,108,EAT                                    DON'T EAT,1549.3925,1543.3539,1317.297,right,2,right,right,not_eat,not_eat,approach,pos,approach-pos,1,1,1171.6000000000931
sub-108,63,1,TRUE,right,avoid,pos,meat11_crop.jpg,1,7,TRUE,62,2,1552.3936,108,EAT                                    DON'T EAT,1551.4108,1543.3539,1317.297,right,2,right,right,not_eat,not_eat,approach,pos,approach-pos,1,1,982.8000000000466
sub-108,64,1,FALSE,right,approach,pos,cake15_crop.jpg,1,7,TRUE,63,1,1554.2406,108,EAT                                    DON'T EAT,1553.4292,1543.3539,1317.297,right,1,left,left,eat,eat,approach,pos,approach-pos,1,1,811.4000000001397
sub-108,65,1,FALSE,right,approach,pos,cake22_crop.jpg,1,7,TRUE,64,1,1556.8073,108,EAT                                    DON'T EAT,1555.4475,1543.3539,1317.297,right,1,left,left,eat,eat,approach,pos,approach-pos,1,1,1359.8000000000466
sub-108,66,1,FALSE,right,approach,pos,cake3_crop.jpg,1,7,TRUE,65,1,1558.6646,108,EAT                                    DON'T EAT,1557.466,1543.3539,1317.297,right,1,left,left,eat,eat,approach,pos,approach-pos,1,1,1198.6000000000931
sub-108,67,1,FALSE,right,approach,pos,cake37_crop.jpg,1,7,TRUE,66,1,1560.8389,108,EAT                                    DON'T EAT,1559.4838,1543.3539,1317.297,right,1,left,left,eat,eat,approach,pos,approach-pos,1,1,1355.0999999998603
sub-108,68,1,FALSE,right,approach,pos,cake10_crop.jpg,1,7,TRUE,67,1,1562.7546,108,EAT                                    DON'T EAT,1561.5026,1543.3539,1317.297,right,1,left,left,eat,eat,approach,pos,approach-pos,1,1,1252
sub-108,69,1,FALSE,right,approach,pos,cake33_crop.jpg,1,7,TRUE,68,1,1564.4586,108,EAT                                    DON'T EAT,1563.5208,1543.3539,1317.297,right,1,left,left,eat,eat,approach,pos,approach-pos,1,1,937.7999999998137
sub-108,70,1,FALSE,right,approach,pos,cake32_crop.jpg,1,7,TRUE,69,1,1566.1975,108,EAT                                    DON'T EAT,1565.5391,1543.3539,1317.297,right,1,left,left,eat,eat,approach,pos,approach-pos,1,1,658.4000000001397
sub-108,71,3,FALSE,left,avoid,neg,fungus36_crop.jpg,1,8,TRUE,70,2,1584.7827,108,EAT                                    DON'T EAT,1583.6542,1579.6344,1317.297,right,2,right,right,not_eat,not_eat,avoid,neg,avoid-neg,1,1,1128.5
sub-108,72,3,FALSE,left,avoid,neg,fungus10_crop.jpg,1,8,TRUE,71,2,1586.4911,108,EAT                                    DON'T EAT,1585.6724,1579.6344,1317.297,right,2,right,right,not_eat,not_eat,avoid,neg,avoid-neg,1,1,818.6999999999534
sub-108,73,3,FALSE,left,avoid,neg,fungus23_crop.jpg,1,8,TRUE,72,2,1588.4929,108,EAT                                    DON'T EAT,1587.6909,1579.6344,1317.297,right,2,right,right,not_eat,not_eat,avoid,neg,avoid-neg,1,1,801.9999999997672
sub-108,74,3,TRUE,left,approach,pos,cake5_crop.jpg,1,8,TRUE,73,1,1590.5011,108,EAT                                    DON'T EAT,1589.709,1579.6344,1317.297,right,1,left,left,eat,eat,avoid,neg,avoid-neg,1,1,792.0999999998603
sub-108,75,3,FALSE,left,avoid,neg,fungus7_crop.jpg,1,8,TRUE,74,2,1592.6145,108,EAT                                    DON'T EAT,1591.7278,1579.6344,1317.297,right,2,right,right,not_eat,not_eat,avoid,neg,avoid-neg,1,1,886.7000000001863
sub-108,76,3,TRUE,left,approach,neg,insect16_crop.jpg,1,8,TRUE,75,1,1594.5239,108,EAT                                    DON'T EAT,1593.746,1579.6344,1317.297,right,1,left,left,eat,eat,avoid,neg,avoid-neg,1,1,777.8999999999069
sub-108,77,3,FALSE,left,avoid,neg,fungus38_crop.jpg,1,8,TRUE,76,2,1596.9966,108,EAT                                    DON'T EAT,1595.764,1579.6344,1317.297,right,2,right,right,not_eat,not_eat,avoid,neg,avoid-neg,1,1,1232.5999999998603
sub-108,78,3,FALSE,left,avoid,neg,fungus19_crop.jpg,1,8,TRUE,77,2,1598.5184,108,EAT                                    DON'T EAT,1597.7827,1579.6344,1317.297,right,2,right,right,not_eat,not_eat,avoid,neg,avoid-neg,1,1,735.6999999999534
sub-108,79,3,FALSE,left,avoid,neg,fungus1_crop.jpg,1,8,TRUE,78,2,1600.4991,108,EAT                                    DON'T EAT,1599.801,1579.6344,1317.297,right,2,right,right,not_eat,not_eat,avoid,neg,avoid-neg,1,1,698.1000000000931
sub-108,80,3,FALSE,left,avoid,neg,fungus40_crop.jpg,1,8,TRUE,79,2,1602.6123,108,EAT                                    DON'T EAT,1601.8191,1579.6344,1317.297,right,2,right,right,not_eat,not_eat,avoid,neg,avoid-neg,1,1,793.2000000001863
sub-108,81,0,FALSE,right,approach,neg,insect35_crop.jpg,2,9,TRUE,80,1,1724.6838,108,EAT                                    DON'T EAT,1723.9039,1719.8838,1708.1249,left,1,left,left,eat,eat,approach,neg,approach-neg,1,1,779.9000000001397
sub-108,82,0,FALSE,right,approach,neg,insect9_crop.jpg,2,9,TRUE,81,1,1726.4282,108,EAT                                    DON'T EAT,1725.9224,1719.8838,1708.1249,left,1,left,left,eat,eat,approach,neg,approach-neg,1,1,505.80000000004657
sub-108,83,0,FALSE,right,approach,neg,insect32_crop.jpg,2,9,TRUE,82,1,1728.4988,108,EAT                                    DON'T EAT,1727.9407,1719.8838,1708.1249,left,1,left,left,eat,eat,approach,neg,approach-neg,1,1,558.0999999998603
sub-108,84,0,FALSE,right,approach,neg,insect37_crop.jpg,2,9,TRUE,83,1,1730.4419,108,EAT                                    DON'T EAT,1729.959,1719.8838,1708.1249,left,1,left,left,eat,eat,approach,neg,approach-neg,1,1,482.9000000001397
sub-108,85,0,TRUE,right,avoid,neg,fungus3_crop.jpg,2,9,TRUE,84,2,1732.7678,108,EAT                                    DON'T EAT,1731.9774,1719.8838,1708.1249,left,2,right,right,not_eat,not_eat,approach,neg,approach-neg,1,1,790.4000000001397
sub-108,86,0,FALSE,right,approach,neg,insect30_crop.jpg,2,9,TRUE,85,1,1734.6912,108,EAT                                    DON'T EAT,1733.9957,1719.8838,1708.1249,left,1,left,left,eat,eat,approach,neg,approach-neg,1,1,695.5
sub-108,87,0,FALSE,right,approach,neg,insect23_crop.jpg,2,9,TRUE,86,1,1736.7103,108,EAT                                    DON'T EAT,1736.014,1719.8838,1708.1249,left,1,left,left,eat,eat,approach,neg,approach-neg,1,1,696.3000000000466
sub-108,88,0,TRUE,right,avoid,pos,meat38_crop.jpg,2,9,TRUE,87,2,1738.8229,108,EAT                                    DON'T EAT,1738.0325,1719.8838,1708.1249,left,2,right,right,not_eat,not_eat,approach,neg,approach-neg,1,1,790.3999999999069
sub-108,89,0,FALSE,right,approach,neg,insect3_crop.jpg,2,9,TRUE,88,1,1741.024,108,EAT                                    DON'T EAT,1740.0504,1719.8838,1708.1249,left,1,left,left,eat,eat,approach,neg,approach-neg,1,1,973.5999999998603
sub-108,90,0,FALSE,right,approach,neg,insect40_crop.jpg,2,9,TRUE,89,1,1742.922,108,EAT                                    DON'T EAT,1742.0691,1719.8838,1708.1249,left,1,left,left,eat,eat,approach,neg,approach-neg,1,1,852.9000000001397
sub-108,91,0,FALSE,right,avoid,neg,fungus36_crop.jpg,2,10,TRUE,90,2,1761.6674,108,EAT                                    DON'T EAT,1760.7513,1756.7313,1708.1249,left,2,right,right,not_eat,not_eat,avoid,neg,avoid-neg,1,1,916.100000000326
sub-108,92,0,FALSE,right,avoid,neg,fungus29_crop.jpg,2,10,TRUE,91,2,1763.572,108,EAT                                    DON'T EAT,1762.7695,1756.7313,1708.1249,left,2,right,right,not_eat,not_eat,avoid,neg,avoid-neg,1,1,802.5
sub-108,93,0,TRUE,right,approach,pos,cake29_crop.jpg,2,10,TRUE,92,1,1765.7456,108,EAT                                    DON'T EAT,1764.788,1756.7313,1708.1249,left,1,left,left,eat,eat,avoid,neg,avoid-neg,1,1,957.5999999998603
sub-108,94,0,TRUE,right,approach,neg,insect22_crop.jpg,2,10,TRUE,93,1,1767.6403,108,EAT                                    DON'T EAT,1766.8064,1756.7313,1708.1249,left,1,left,left,eat,eat,avoid,neg,avoid-neg,1,1,833.9000000001397
sub-108,95,0,FALSE,right,avoid,neg,fungus14_crop.jpg,2,10,TRUE,94,2,1769.7815,108,EAT                                    DON'T EAT,1768.8246,1756.7313,1708.1249,left,2,right,right,not_eat,not_eat,avoid,neg,avoid-neg,1,1,956.9000000001397
sub-108,96,0,FALSE,right,avoid,neg,fungus19_crop.jpg,2,10,TRUE,95,2,1771.4954,108,EAT                                    DON'T EAT,1770.8429,1756.7313,1708.1249,left,2,right,right,not_eat,not_eat,avoid,neg,avoid-neg,1,1,652.4999999997672
sub-108,97,0,FALSE,right,avoid,neg,fungus26_crop.jpg,2,10,TRUE,96,2,1773.5035,108,EAT                                    DON'T EAT,1772.8613,1756.7313,1708.1249,left,2,right,right,not_eat,not_eat,avoid,neg,avoid-neg,1,1,642.1999999999534
sub-108,98,0,FALSE,right,avoid,neg,fungus38_crop.jpg,2,10,TRUE,97,2,1775.4791,108,EAT                                    DON'T EAT,1774.8796,1756.7313,1708.1249,left,2,right,right,not_eat,not_eat,avoid,neg,avoid-neg,1,1,599.5
sub-108,99,0,FALSE,right,avoid,neg,fungus4_crop.jpg,2,10,TRUE,98,2,1777.4707,108,EAT                                    DON'T EAT,1776.8982,1756.7313,1708.1249,left,2,right,right,not_eat,not_eat,avoid,neg,avoid-neg,1,1,572.5
sub-108,100,0,FALSE,right,avoid,neg,fungus23_crop.jpg,2,10,TRUE,99,2,1779.6016,108,EAT                                    DON'T EAT,1778.9164,1756.7313,1708.1249,left,2,right,right,not_eat,not_eat,avoid,neg,avoid-neg,1,1,685.1999999997206
sub-108,101,1,FALSE,left,approach,neg,insect6_crop.jpg,2,11,TRUE,100,1,1798.6514,108,EAT                                    DON'T EAT,1797.5653,1793.5453,1708.1249,left,1,left,left,eat,eat,approach,neg,approach-neg,1,1,1086.0999999998603
sub-108,102,1,TRUE,left,avoid,neg,fungus37_crop.jpg,2,11,TRUE,101,2,1800.3739,108,EAT                                    DON'T EAT,1799.5834,1793.5453,1708.1249,left,2,right,right,not_eat,not_eat,approach,neg,approach-neg,1,1,790.5000000002328
sub-108,103,1,FALSE,left,approach,neg,insect15_crop.jpg,2,11,TRUE,102,1,1802.2689,108,EAT                                    DON'T EAT,1801.6019,1793.5453,1708.1249,left,1,left,left,eat,eat,approach,neg,approach-neg,1,1,667.0000000002328
sub-108,104,1,FALSE,left,approach,neg,insect8_crop.jpg,2,11,TRUE,103,1,1804.1173,108,EAT                                    DON'T EAT,1803.6201,1793.5453,1708.1249,left,1,left,left,eat,eat,approach,neg,approach-neg,1,1,497.1999999997206
sub-108,105,1,FALSE,left,approach,neg,insect25_crop.jpg,2,11,TRUE,104,1,1806.239,108,EAT                                    DON'T EAT,1805.6385,1793.5453,1708.1249,left,1,left,left,eat,eat,approach,neg,approach-neg,1,1,600.5
sub-108,106,1,FALSE,left,approach,neg,insect10_crop.jpg,2,11,TRUE,105,1,1808.4893,108,EAT                                    DON'T EAT,1807.6569,1793.5453,1708.1249,left,1,left,left,eat,eat,approach,neg,approach-neg,1,1,832.4000000001397
sub-108,107,1,FALSE,left,approach,neg,insect39_crop.jpg,2,11,TRUE,106,1,1810.391,108,EAT                                    DON'T EAT,1809.6753,1793.5453,1708.1249,left,1,left,left,eat,eat,approach,neg,approach-neg,1,1,715.6999999999534
sub-108,108,1,TRUE,left,avoid,pos,meat14_crop.jpg,2,11,TRUE,107,2,1812.7925,108,EAT                                    DON'T EAT,1811.6935,1793.5453,1708.1249,left,2,right,right,not_eat,not_eat,approach,neg,approach-neg,1,1,1099
sub-108,109,1,FALSE,left,approach,neg,insect29_crop.jpg,2,11,TRUE,108,1,1814.502,108,EAT                                    DON'T EAT,1813.7119,1793.5453,1708.1249,left,1,left,left,eat,eat,approach,neg,approach-neg,1,1,790.1000000000931
sub-108,110,1,FALSE,left,approach,neg,insect34_crop.jpg,2,11,TRUE,109,1,1816.2991,108,EAT                                    DON'T EAT,1815.7303,1793.5453,1708.1249,left,1,left,left,eat,eat,approach,neg,approach-neg,1,1,568.7999999998137
sub-108,111,3,TRUE,right,avoid,pos,meat26_crop.jpg,2,12,TRUE,110,2,1832.6693,108,EAT                                    DON'T EAT,1831.8269,1827.807,1708.1249,left,2,right,right,not_eat,not_eat,approach,neg,approach-neg,1,1,842.4000000001397
sub-108,112,3,FALSE,right,approach,neg,insect18_crop.jpg,2,12,TRUE,111,1,1834.5629,108,EAT                                    DON'T EAT,1833.8453,1827.807,1708.1249,left,1,left,left,eat,eat,approach,neg,approach-neg,1,1,717.5999999998603
sub-108,113,3,FALSE,right,approach,neg,insect6_crop.jpg,2,12,TRUE,112,1,1836.4755,108,EAT                                    DON'T EAT,1835.8636,1827.807,1708.1249,left,1,left,left,eat,eat,approach,neg,approach-neg,1,1,611.9000000001397
sub-108,114,3,FALSE,right,approach,neg,insect21_crop.jpg,2,12,TRUE,113,1,1838.504,108,EAT                                    DON'T EAT,1837.882,1827.807,1708.1249,left,1,left,left,eat,eat,approach,neg,approach-neg,1,1,622
sub-108,115,3,FALSE,right,approach,neg,insect20_crop.jpg,2,12,TRUE,114,1,1841.1915,108,EAT                                    DON'T EAT,1839.9003,1827.807,1708.1249,left,1,left,left,eat,eat,approach,neg,approach-neg,1,1,1291.1999999999534
sub-108,116,3,FALSE,right,approach,neg,insect10_crop.jpg,2,12,TRUE,115,1,1842.8239,108,EAT                                    DON'T EAT,1841.9185,1827.807,1708.1249,left,1,left,left,eat,eat,approach,neg,approach-neg,1,1,905.4000000001397
sub-108,117,3,FALSE,right,approach,neg,insect38_crop.jpg,2,12,TRUE,116,1,1844.5323,108,EAT                                    DON'T EAT,1843.9365,1827.807,1708.1249,left,1,left,left,eat,eat,approach,neg,approach-neg,1,1,595.8000000000466
sub-108,118,3,TRUE,right,avoid,neg,fungus16_crop.jpg,2,12,TRUE,117,2,1846.905,108,EAT                                    DON'T EAT,1845.9553,1827.807,1708.1249,left,2,right,right,not_eat,not_eat,approach,neg,approach-neg,1,1,949.6999999999534
sub-108,119,3,FALSE,right,approach,neg,insect19_crop.jpg,2,12,TRUE,118,1,1848.7722,108,EAT                                    DON'T EAT,1847.9736,1827.807,1708.1249,left,1,left,left,eat,eat,approach,neg,approach-neg,1,1,798.6000000000931
sub-108,120,3,FALSE,right,approach,neg,insect24_crop.jpg,2,12,TRUE,119,1,1850.8301,108,EAT                                    DON'T EAT,1849.9921,1827.807,1708.1249,left,1,left,left,eat,eat,approach,neg,approach-neg,1,1,838
sub-108,121,0,FALSE,right,avoid,pos,meat5_crop.jpg,2,13,TRUE,120,2,1870.4718,108,EAT                                    DON'T EAT,1869.608,1865.5881,1708.1249,left,2,right,right,not_eat,not_eat,avoid,pos,avoid-pos,1,1,863.8000000000466
sub-108,122,0,FALSE,right,avoid,pos,meat32_crop.jpg,2,13,TRUE,121,2,1872.2279,108,EAT                                    DON'T EAT,1871.6267,1865.5881,1708.1249,left,2,right,right,not_eat,not_eat,avoid,pos,avoid-pos,1,1,601.2000000001863
sub-108,123,0,TRUE,right,approach,pos,cake39_crop.jpg,2,13,TRUE,122,1,1874.3414,108,EAT                                    DON'T EAT,1873.6449,1865.5881,1708.1249,left,1,left,left,eat,eat,avoid,pos,avoid-pos,1,1,696.5
sub-108,124,0,FALSE,right,avoid,pos,meat15_crop.jpg,2,13,TRUE,123,2,1876.4668,108,EAT                                    DON'T EAT,1875.6633,1865.5881,1708.1249,left,2,right,right,not_eat,not_eat,avoid,pos,avoid-pos,1,1,803.4999999997672
sub-108,125,0,FALSE,right,avoid,pos,meat31_crop.jpg,2,13,TRUE,124,2,1878.4823,108,EAT                                    DON'T EAT,1877.6814,1865.5881,1708.1249,left,2,right,right,not_eat,not_eat,avoid,pos,avoid-pos,1,1,800.8999999999069
sub-108,126,0,FALSE,right,avoid,pos,meat17_crop.jpg,2,13,TRUE,125,2,1880.439,108,EAT                                    DON'T EAT,1879.7001,1865.5881,1708.1249,left,2,right,right,not_eat,not_eat,avoid,pos,avoid-pos,1,1,738.8999999999069
sub-108,127,0,FALSE,right,avoid,pos,meat24_crop.jpg,2,13,TRUE,126,2,1882.3713,108,EAT                                    DON'T EAT,1881.718,1865.5881,1708.1249,left,2,right,right,not_eat,not_eat,avoid,pos,avoid-pos,1,1,653.3000000000466
sub-108,128,0,FALSE,right,avoid,pos,meat13_crop.jpg,2,13,TRUE,127,2,1884.4092,108,EAT                                    DON'T EAT,1883.7367,1865.5881,1708.1249,left,2,right,right,not_eat,not_eat,avoid,pos,avoid-pos,1,1,672.5
sub-108,129,0,FALSE,right,avoid,pos,meat37_crop.jpg,2,13,TRUE,128,2,1886.5778,108,EAT                                    DON'T EAT,1885.755,1865.5881,1708.1249,left,2,right,right,not_eat,not_eat,avoid,pos,avoid-pos,1,1,822.8000000000466
sub-108,130,0,TRUE,right,approach,neg,insect27_crop.jpg,2,13,TRUE,129,1,1888.5734,108,EAT                                    DON'T EAT,1887.7733,1865.5881,1708.1249,left,1,left,left,eat,eat,avoid,pos,avoid-pos,1,1,800.0999999998603
sub-108,131,2,FALSE,left,avoid,pos,meat36_crop.jpg,2,14,TRUE,130,2,1907.16,108,EAT                                    DON'T EAT,1906.2715,1902.2517,1708.1249,left,2,right,right,not_eat,not_eat,avoid,pos,avoid-pos,1,1,888.5
sub-108,132,2,FALSE,left,avoid,pos,meat40_crop.jpg,2,14,TRUE,131,2,1908.8153,108,EAT                                    DON'T EAT,1908.2898,1902.2517,1708.1249,left,2,right,right,not_eat,not_eat,avoid,pos,avoid-pos,1,1,525.5
sub-108,133,2,FALSE,left,avoid,pos,meat33_crop.jpg,2,14,TRUE,132,2,1911.4155,108,EAT                                    DON'T EAT,1910.3082,1902.2517,1708.1249,left,2,right,right,not_eat,not_eat,avoid,pos,avoid-pos,1,1,1107.3000000000466
sub-108,134,2,FALSE,left,avoid,pos,meat12_crop.jpg,2,14,TRUE,133,2,1912.9738,108,EAT                                    DON'T EAT,1912.3265,1902.2517,1708.1249,left,2,right,right,not_eat,not_eat,avoid,pos,avoid-pos,1,1,647.3000000000466
sub-108,135,2,FALSE,left,avoid,pos,meat7_crop.jpg,2,14,TRUE,134,2,1914.872,108,EAT                                    DON'T EAT,1914.3448,1902.2517,1708.1249,left,2,right,right,not_eat,not_eat,avoid,pos,avoid-pos,1,1,527.1999999999534
sub-108,136,2,FALSE,left,avoid,pos,meat20_crop.jpg,2,14,TRUE,135,2,1916.8057,108,EAT                                    DON'T EAT,1916.3638,1902.2517,1708.1249,left,2,right,right,not_eat,not_eat,avoid,pos,avoid-pos,1,1,441.89999999990687
sub-108,137,2,TRUE,left,approach,pos,cake34_crop.jpg,2,14,TRUE,136,1,1919.2888,108,EAT                                    DON'T EAT,1918.3821,1902.2517,1708.1249,left,1,left,left,eat,eat,avoid,pos,avoid-pos,1,1,906.6999999999534
sub-108,138,2,FALSE,left,avoid,pos,meat38_crop.jpg,2,14,TRUE,137,2,1921.1166,108,EAT                                    DON'T EAT,1920.4005,1902.2517,1708.1249,left,2,right,right,not_eat,not_eat,avoid,pos,avoid-pos,1,1,716.1000000000931
sub-108,139,2,TRUE,left,approach,neg,insect7_crop.jpg,2,14,TRUE,138,1,1923.1703,108,EAT                                    DON'T EAT,1922.4188,1902.2517,1708.1249,left,1,left,left,eat,eat,avoid,pos,avoid-pos,1,1,751.5000000002328
sub-108,140,2,FALSE,left,avoid,pos,meat23_crop.jpg,2,14,TRUE,139,2,1925.1532,108,EAT                                    DON'T EAT,1924.4371,1902.2517,1708.1249,left,2,right,right,not_eat,not_eat,avoid,pos,avoid-pos,1,1,716.0999999998603
sub-108,141,1,FALSE,left,avoid,pos,meat8_crop.jpg,2,15,TRUE,140,2,1941.9325,108,EAT                                    DON'T EAT,1941.1843,1937.1643,1708.1249,left,2,right,right,not_eat,not_eat,avoid,pos,avoid-pos,1,1,748.2000000001863
sub-108,142,1,TRUE,left,approach,pos,cake15_crop.jpg,2,15,TRUE,141,2,1944.098,108,EAT                                    DON'T EAT,1943.2026,1937.1643,1708.1249,left,2,right,right,not_eat,not_eat,avoid,pos,avoid-pos,0,0,895.3999999999069
sub-108,143,1,FALSE,left,avoid,pos,meat27_crop.jpg,2,15,TRUE,142,1,1945.3046,108,EAT                                    DON'T EAT,1945.2211,1937.1643,1708.1249,left,1,left,left,eat,eat,avoid,pos,avoid-pos,0,0,83.49999999976717
sub-108,144,1,FALSE,left,avoid,pos,meat28_crop.jpg,2,15,TRUE,143,2,1948.1056,108,EAT                                    DON'T EAT,1947.2394,1937.1643,1708.1249,left,2,right,right,not_eat,not_eat,avoid,pos,avoid-pos,1,1,866.2000000001863
sub-108,145,1,FALSE,left,avoid,pos,meat9_crop.jpg,2,15,TRUE,144,2,1950.28,108,EAT                                    DON'T EAT,1949.2579,1937.1643,1708.1249,left,2,right,right,not_eat,not_eat,avoid,pos,avoid-pos,1,1,1022.0999999998603
sub-108,146,1,FALSE,left,avoid,pos,meat37_crop.jpg,2,15,TRUE,145,2,1952.352,108,EAT                                    DON'T EAT,1951.276,1937.1643,1708.1249,left,2,right,right,not_eat,not_eat,avoid,pos,avoid-pos,1,1,1076
sub-108,147,1,TRUE,left,approach,neg,insect27_crop.jpg,2,15,TRUE,146,1,1954.0123,108,EAT                                    DON'T EAT,1953.2944,1937.1643,1708.1249,left,1,left,left,eat,eat,avoid,pos,avoid-pos,1,1,717.9000000001397
sub-108,148,1,FALSE,left,avoid,pos,meat5_crop.jpg,2,15,TRUE,147,2,1956.6794,108,EAT                                    DON'T EAT,1955.3127,1937.1643,1708.1249,left,2,right,right,not_eat,not_eat,avoid,pos,avoid-pos,1,1,1366.6999999999534
sub-108,149,1,FALSE,left,avoid,pos,meat10_crop.jpg,2,15,TRUE,148,2,1957.9546,108,EAT                                    DON'T EAT,1957.3312,1937.1643,1708.1249,left,2,right,right,not_eat,not_eat,avoid,pos,avoid-pos,1,1,623.3999999999069
sub-108,150,1,FALSE,left,avoid,pos,meat21_crop.jpg,2,15,TRUE,149,2,1960.247,108,EAT                                    DON'T EAT,1959.3494,1937.1643,1708.1249,left,2,right,right,not_eat,not_eat,avoid,pos,avoid-pos,1,1,897.5999999998603
sub-108,151,3,FALSE,right,avoid,pos,meat16_crop.jpg,2,16,TRUE,150,2,1977.7782,108,EAT                                    DON'T EAT,1976.9976,1972.9774,1708.1249,left,2,right,right,not_eat,not_eat,avoid,pos,avoid-pos,1,1,780.6000000000931
sub-108,152,3,FALSE,right,avoid,pos,meat4_crop.jpg,2,16,TRUE,151,2,1980.0923,108,EAT                                    DON'T EAT,1979.0159,1972.9774,1708.1249,left,2,right,right,not_eat,not_eat,avoid,pos,avoid-pos,1,1,1076.3999999999069
sub-108,153,3,TRUE,right,approach,neg,insect25_crop.jpg,2,16,TRUE,152,1,1981.7391,108,EAT                                    DON'T EAT,1981.0339,1972.9774,1708.1249,left,1,left,left,eat,eat,avoid,pos,avoid-pos,1,1,705.2000000001863
sub-108,154,3,FALSE,right,avoid,pos,meat23_crop.jpg,2,16,TRUE,153,2,1983.7397,108,EAT                                    DON'T EAT,1983.0524,1972.9774,1708.1249,left,2,right,right,not_eat,not_eat,avoid,pos,avoid-pos,1,1,687.3000000000466
sub-108,155,3,FALSE,right,avoid,pos,meat19_crop.jpg,2,16,TRUE,154,2,1985.7141,108,EAT                                    DON'T EAT,1985.0708,1972.9774,1708.1249,left,2,right,right,not_eat,not_eat,avoid,pos,avoid-pos,1,1,643.2999999998137
sub-108,156,3,FALSE,right,avoid,pos,meat33_crop.jpg,2,16,TRUE,155,2,1987.8469,108,EAT                                    DON'T EAT,1987.0891,1972.9774,1708.1249,left,2,right,right,not_eat,not_eat,avoid,pos,avoid-pos,1,1,757.8000000000466
sub-108,157,3,FALSE,right,avoid,pos,meat12_crop.jpg,2,16,TRUE,156,2,1989.8601,108,EAT                                    DON'T EAT,1989.1075,1972.9774,1708.1249,left,2,right,right,not_eat,not_eat,avoid,pos,avoid-pos,1,1,752.6000000000931
sub-108,158,3,FALSE,right,avoid,pos,meat25_crop.jpg,2,16,TRUE,157,2,1991.9331,108,EAT                                    DON'T EAT,1991.126,1972.9774,1708.1249,left,2,right,right,not_eat,not_eat,avoid,pos,avoid-pos,1,1,807.0999999998603
sub-108,159,3,FALSE,right,avoid,pos,meat34_crop.jpg,2,16,TRUE,158,2,1994.03,108,EAT                                    DON'T EAT,1993.1443,1972.9774,1708.1249,left,2,right,right,not_eat,not_eat,avoid,pos,avoid-pos,1,1,885.7000000001863
sub-108,160,3,TRUE,right,approach,pos,cake38_crop.jpg,2,16,TRUE,159,1,1996.0583,108,EAT                                    DON'T EAT,1995.1624,1972.9774,1708.1249,left,1,left,left,eat,eat,avoid,pos,avoid-pos,1,1,895.8999999999069
sub-108,161,0,FALSE,left,avoid,neg,fungus2_crop.jpg,3,17,TRUE,160,2,2093.625,108,EAT                                    DON'T EAT,2092.7935,2088.7734,2076.8928,right,2,right,right,not_eat,not_eat,avoid,neg,avoid-neg,1,1,831.4999999997672
sub-108,162,0,TRUE,left,approach,neg,insect9_crop.jpg,3,17,TRUE,161,1,2095.4456,108,EAT                                    DON'T EAT,2094.812,2088.7734,2076.8928,right,1,left,left,eat,eat,avoid,neg,avoid-neg,1,1,633.6000000000931
sub-108,163,0,TRUE,left,approach,pos,cake24_crop.jpg,3,17,TRUE,162,1,2097.545,108,EAT                                    DON'T EAT,2096.8303,2088.7734,2076.8928,right,1,left,left,eat,eat,avoid,neg,avoid-neg,1,1,714.6999999999534
sub-108,164,0,FALSE,left,avoid,neg,fungus39_crop.jpg,3,17,TRUE,163,2,2099.6514,108,EAT                                    DON'T EAT,2098.8486,2088.7734,2076.8928,right,2,right,right,not_eat,not_eat,avoid,neg,avoid-neg,1,1,802.8000000007451
sub-108,165,0,FALSE,left,avoid,neg,fungus30_crop.jpg,3,17,TRUE,164,2,2101.7214,108,EAT                                    DON'T EAT,2100.867,2088.7734,2076.8928,right,2,right,right,not_eat,not_eat,avoid,neg,avoid-neg,1,1,854.3999999999069
sub-108,166,0,FALSE,left,avoid,neg,fungus18_crop.jpg,3,17,TRUE,165,2,2103.5586,108,EAT                                    DON'T EAT,2102.8853,2088.7734,2076.8928,right,2,right,right,not_eat,not_eat,avoid,neg,avoid-neg,1,1,673.2999999998137
sub-108,167,0,FALSE,left,avoid,neg,fungus33_crop.jpg,3,17,TRUE,166,2,2105.662,108,EAT                                    DON'T EAT,2104.9033,2088.7734,2076.8928,right,2,right,right,not_eat,not_eat,avoid,neg,avoid-neg,1,1,758.7000000001863
sub-108,168,0,FALSE,left,avoid,neg,fungus20_crop.jpg,3,17,TRUE,167,2,2107.6396,108,EAT                                    DON'T EAT,2106.9219,2088.7734,2076.8928,right,2,right,right,not_eat,not_eat,avoid,neg,avoid-neg,1,1,717.7000000001863
sub-108,169,0,FALSE,left,avoid,neg,fungus28_crop.jpg,3,17,TRUE,168,2,2109.6443,108,EAT                                    DON'T EAT,2108.9402,2088.7734,2076.8928,right,2,right,right,not_eat,not_eat,avoid,neg,avoid-neg,1,1,704.0999999996275
sub-108,170,0,FALSE,left,avoid,neg,fungus9_crop.jpg,3,17,TRUE,169,2,2111.5884,108,EAT                                    DON'T EAT,2110.9585,2088.7734,2076.8928,right,2,right,right,not_eat,not_eat,avoid,neg,avoid-neg,1,1,629.8999999999069
sub-108,171,3,FALSE,left,avoid,pos,meat29_crop.jpg,3,18,TRUE,170,2,2130.6536,108,EAT                                    DON'T EAT,2129.8743,2125.8542,2076.8928,right,2,right,right,not_eat,not_eat,avoid,pos,avoid-pos,1,1,779.3000000002794
sub-108,172,3,FALSE,left,avoid,pos,meat39_crop.jpg,3,18,TRUE,171,2,2132.8,108,EAT                                    DON'T EAT,2131.8928,2125.8542,2076.8928,right,2,right,right,not_eat,not_eat,avoid,pos,avoid-pos,1,1,907.1999999997206
sub-108,173,3,FALSE,left,avoid,pos,meat30_crop.jpg,3,18,TRUE,172,2,2134.596,108,EAT                                    DON'T EAT,2133.9111,2125.8542,2076.8928,right,2,right,right,not_eat,not_eat,avoid,pos,avoid-pos,1,1,684.9000000003725
sub-108,174,3,FALSE,left,avoid,pos,meat16_crop.jpg,3,18,TRUE,173,2,2136.553,108,EAT                                    DON'T EAT,2135.9294,2125.8542,2076.8928,right,2,right,right,not_eat,not_eat,avoid,pos,avoid-pos,1,1,623.6000000000931
sub-108,175,3,TRUE,left,approach,neg,insect21_crop.jpg,3,18,TRUE,174,1,2138.6743,108,EAT                                    DON'T EAT,2137.9478,2125.8542,2076.8928,right,1,left,left,eat,eat,avoid,pos,avoid-pos,1,1,726.5000000004657
sub-108,176,3,FALSE,left,avoid,pos,meat19_crop.jpg,3,18,TRUE,175,2,2140.7256,108,EAT                                    DON'T EAT,2139.966,2125.8542,2076.8928,right,2,right,right,not_eat,not_eat,avoid,pos,avoid-pos,1,1,759.6000000000931
sub-108,177,3,FALSE,left,avoid,pos,meat24_crop.jpg,3,18,TRUE,176,2,2142.6592,108,EAT                                    DON'T EAT,2141.9844,2125.8542,2076.8928,right,2,right,right,not_eat,not_eat,avoid,pos,avoid-pos,1,1,674.8000000002794
sub-108,178,3,FALSE,left,avoid,pos,meat1_crop.jpg,3,18,TRUE,177,2,2144.7817,108,EAT                                    DON'T EAT,2144.003,2125.8542,2076.8928,right,2,right,right,not_eat,not_eat,avoid,pos,avoid-pos,1,1,778.7000000001863
sub-108,179,3,TRUE,left,approach,pos,cake6_crop.jpg,3,18,TRUE,178,1,2146.7637,108,EAT                                    DON'T EAT,2146.021,2125.8542,2076.8928,right,1,left,left,eat,eat,avoid,pos,avoid-pos,1,1,742.7000000001863
sub-108,180,3,FALSE,left,avoid,pos,meat2_crop.jpg,3,18,TRUE,179,2,2148.7544,108,EAT                                    DON'T EAT,2148.0393,2125.8542,2076.8928,right,2,right,right,not_eat,not_eat,avoid,pos,avoid-pos,1,1,715.1000000000931
sub-108,181,2,FALSE,right,avoid,neg,fungus6_crop.jpg,3,19,TRUE,180,2,2166.2876,108,EAT                                    DON'T EAT,2165.5706,2161.5503,2076.8928,right,2,right,right,not_eat,not_eat,avoid,neg,avoid-neg,1,1,717
sub-108,182,2,FALSE,right,avoid,neg,fungus25_crop.jpg,3,19,TRUE,181,2,2168.3972,108,EAT                                    DON'T EAT,2167.5889,2161.5503,2076.8928,right,2,right,right,not_eat,not_eat,avoid,neg,avoid-neg,1,1,808.2999999993481
sub-108,183,2,FALSE,right,avoid,neg,fungus28_crop.jpg,3,19,TRUE,182,2,2170.3452,108,EAT                                    DON'T EAT,2169.6074,2161.5503,2076.8928,right,2,right,right,not_eat,not_eat,avoid,neg,avoid-neg,1,1,737.8000000002794
sub-108,184,2,FALSE,right,avoid,neg,fungus1_crop.jpg,3,19,TRUE,183,2,2172.2256,108,EAT                                    DON'T EAT,2171.6257,2161.5503,2076.8928,right,2,right,right,not_eat,not_eat,avoid,neg,avoid-neg,1,1,599.8999999999069
sub-108,185,2,TRUE,right,approach,neg,insect26_crop.jpg,3,19,TRUE,184,1,2174.4167,108,EAT                                    DON'T EAT,2173.644,2161.5503,2076.8928,right,1,left,left,eat,eat,avoid,neg,avoid-neg,1,1,772.7000000001863
sub-108,186,2,FALSE,right,avoid,neg,fungus12_crop.jpg,3,19,TRUE,185,2,2176.3381,108,EAT                                    DON'T EAT,2175.6624,2161.5503,2076.8928,right,2,right,right,not_eat,not_eat,avoid,neg,avoid-neg,1,1,675.6999999997206
sub-108,187,2,FALSE,right,avoid,neg,fungus21_crop.jpg,3,19,TRUE,186,2,2178.7231,108,EAT                                    DON'T EAT,2177.6807,2161.5503,2076.8928,right,2,right,right,not_eat,not_eat,avoid,neg,avoid-neg,1,1,1042.4000000003725
sub-108,188,2,TRUE,right,approach,pos,cake23_crop.jpg,3,19,TRUE,187,1,2180.5103,108,EAT                                    DON'T EAT,2179.699,2161.5503,2076.8928,right,1,left,left,eat,eat,avoid,neg,avoid-neg,1,1,811.2999999998137
sub-108,189,2,FALSE,right,avoid,neg,fungus22_crop.jpg,3,19,TRUE,188,2,2182.3374,108,EAT                                    DON'T EAT,2181.7173,2161.5503,2076.8928,right,2,right,right,not_eat,not_eat,avoid,neg,avoid-neg,1,1,620.1000000000931
sub-108,190,2,FALSE,right,avoid,neg,fungus2_crop.jpg,3,19,TRUE,189,2,2184.474,108,EAT                                    DON'T EAT,2183.7358,2161.5503,2076.8928,right,2,right,right,not_eat,not_eat,avoid,neg,avoid-neg,1,1,738.2000000001863
sub-108,191,3,FALSE,left,approach,neg,insect2_crop.jpg,3,20,TRUE,190,1,2202.664,108,EAT                                    DON'T EAT,2201.934,2197.9138,2076.8928,right,1,left,left,eat,eat,approach,neg,approach-neg,1,1,730
sub-108,192,3,FALSE,left,approach,neg,insect3_crop.jpg,3,20,TRUE,191,1,2204.509,108,EAT                                    DON'T EAT,2203.9524,2197.9138,2076.8928,right,1,left,left,eat,eat,approach,neg,approach-neg,1,1,556.6000000000931
sub-108,193,3,FALSE,left,approach,neg,insect26_crop.jpg,3,20,TRUE,192,1,2206.731,108,EAT                                    DON'T EAT,2205.971,2197.9138,2076.8928,right,1,left,left,eat,eat,approach,neg,approach-neg,1,1,760
sub-108,194,3,FALSE,left,approach,neg,insect12_crop.jpg,3,20,TRUE,193,1,2208.5684,108,EAT                                    DON'T EAT,2207.9893,2197.9138,2076.8928,right,1,left,left,eat,eat,approach,neg,approach-neg,1,1,579.0999999996275
sub-108,195,3,FALSE,left,approach,neg,insect33_crop.jpg,3,20,TRUE,194,1,2210.6184,108,EAT                                    DON'T EAT,2210.0076,2197.9138,2076.8928,right,1,left,left,eat,eat,approach,neg,approach-neg,1,1,610.7999999998137
sub-108,196,3,TRUE,left,avoid,pos,meat11_crop.jpg,3,20,TRUE,195,2,2212.71,108,EAT                                    DON'T EAT,2212.0261,2197.9138,2076.8928,right,2,right,right,not_eat,not_eat,approach,neg,approach-neg,1,1,683.8999999999069
sub-108,197,3,FALSE,left,approach,neg,insect28_crop.jpg,3,20,TRUE,196,1,2214.688,108,EAT                                    DON'T EAT,2214.0442,2197.9138,2076.8928,right,1,left,left,eat,eat,approach,neg,approach-neg,1,1,643.8000000002794
sub-108,198,3,TRUE,left,avoid,neg,fungus21_crop.jpg,3,20,TRUE,197,2,2216.8643,108,EAT                                    DON'T EAT,2216.0625,2197.9138,2076.8928,right,2,right,right,not_eat,not_eat,approach,neg,approach-neg,1,1,801.8000000002794
sub-108,199,3,FALSE,left,approach,neg,insect11_crop.jpg,3,20,TRUE,198,1,2219.1655,108,EAT                                    DON'T EAT,2218.081,2197.9138,2076.8928,right,1,left,left,eat,eat,approach,neg,approach-neg,1,1,1084.5
sub-108,200,3,FALSE,left,approach,neg,insect19_crop.jpg,3,20,TRUE,199,1,2220.6892,108,EAT                                    DON'T EAT,2220.099,2197.9138,2076.8928,right,1,left,left,eat,eat,approach,neg,approach-neg,1,1,590.1999999997206
sub-108,201,1,FALSE,left,avoid,neg,fungus22_crop.jpg,3,21,TRUE,200,2,2239.0461,108,EAT                                    DON'T EAT,2238.3145,2234.2942,2076.8928,right,2,right,right,not_eat,not_eat,avoid,neg,avoid-neg,1,1,731.6000000000931
sub-108,202,1,TRUE,left,approach,neg,insect5_crop.jpg,3,21,TRUE,201,1,2241.4932,108,EAT                                    DON'T EAT,2240.3323,2234.2942,2076.8928,right,1,left,left,eat,eat,avoid,neg,avoid-neg,1,1,1160.8999999999069
sub-108,203,1,FALSE,left,avoid,neg,fungus17_crop.jpg,3,21,TRUE,202,2,2243.0994,108,EAT                                    DON'T EAT,2242.351,2234.2942,2076.8928,right,2,right,right,not_eat,not_eat,avoid,neg,avoid-neg,1,1,748.3999999999069
sub-108,204,1,FALSE,left,avoid,neg,fungus15_crop.jpg,3,21,TRUE,203,2,2245.043,108,EAT                                    DON'T EAT,2244.3694,2234.2942,2076.8928,right,2,right,right,not_eat,not_eat,avoid,neg,avoid-neg,1,1,673.6000000000931
sub-108,205,1,FALSE,left,avoid,neg,fungus29_crop.jpg,3,21,TRUE,204,2,2247.095,108,EAT                                    DON'T EAT,2246.388,2234.2942,2076.8928,right,2,right,right,not_eat,not_eat,avoid,neg,avoid-neg,1,1,707
sub-108,206,1,FALSE,left,avoid,neg,fungus14_crop.jpg,3,21,TRUE,205,2,2249.2173,108,EAT                                    DON'T EAT,2248.4062,2234.2942,2076.8928,right,2,right,right,not_eat,not_eat,avoid,neg,avoid-neg,1,1,811.1000000000931
sub-108,207,1,FALSE,left,avoid,neg,fungus8_crop.jpg,3,21,TRUE,206,2,2251.4507,108,EAT                                    DON'T EAT,2250.4243,2234.2942,2076.8928,right,2,right,right,not_eat,not_eat,avoid,neg,avoid-neg,1,1,1026.3999999994412
sub-108,208,1,FALSE,left,avoid,neg,fungus11_crop.jpg,3,21,TRUE,207,2,2253.4128,108,EAT                                    DON'T EAT,2252.4424,2234.2942,2076.8928,right,2,right,right,not_eat,not_eat,avoid,neg,avoid-neg,1,1,970.4000000003725
sub-108,209,1,TRUE,left,approach,pos,cake33_crop.jpg,3,21,TRUE,208,1,2255.1785,108,EAT                                    DON'T EAT,2254.4612,2234.2942,2076.8928,right,1,left,left,eat,eat,avoid,neg,avoid-neg,1,1,717.2999999998137
sub-108,210,1,FALSE,left,avoid,neg,fungus3_crop.jpg,3,21,TRUE,209,2,2257.3,108,EAT                                    DON'T EAT,2256.4792,2234.2942,2076.8928,right,2,right,right,not_eat,not_eat,avoid,neg,avoid-neg,1,1,820.7999999998137
sub-108,211,2,FALSE,left,approach,pos,cake11_crop.jpg,3,22,TRUE,210,1,2276.3735,108,EAT                                    DON'T EAT,2275.6787,2271.6587,2076.8928,right,1,left,left,eat,eat,approach,pos,approach-pos,1,1,694.8000000002794
sub-108,212,2,FALSE,left,approach,pos,cake36_crop.jpg,3,22,TRUE,211,1,2278.331,108,EAT                                    DON'T EAT,2277.6973,2271.6587,2076.8928,right,1,left,left,eat,eat,approach,pos,approach-pos,1,1,633.7000000001863
sub-108,213,2,FALSE,left,approach,pos,cake17_crop.jpg,3,22,TRUE,212,1,2280.3271,108,EAT                                    DON'T EAT,2279.7156,2271.6587,2076.8928,right,1,left,left,eat,eat,approach,pos,approach-pos,1,1,611.5
sub-108,214,2,FALSE,left,approach,pos,cake30_crop.jpg,3,22,TRUE,213,1,2282.7146,108,EAT                                    DON'T EAT,2281.7336,2271.6587,2076.8928,right,1,left,left,eat,eat,approach,pos,approach-pos,1,1,980.9999999995343
sub-108,215,2,FALSE,left,approach,pos,cake25_crop.jpg,3,22,TRUE,214,1,2284.3945,108,EAT                                    DON'T EAT,2283.752,2271.6587,2076.8928,right,1,left,left,eat,eat,approach,pos,approach-pos,1,1,642.5
sub-108,216,2,FALSE,left,approach,pos,cake12_crop.jpg,3,22,TRUE,215,1,2286.604,108,EAT                                    DON'T EAT,2285.7703,2271.6587,2076.8928,right,1,left,left,eat,eat,approach,pos,approach-pos,1,1,833.6999999997206
sub-108,217,2,FALSE,left,approach,pos,cake4_crop.jpg,3,22,TRUE,216,1,2288.5571,108,EAT                                    DON'T EAT,2287.7888,2271.6587,2076.8928,right,1,left,left,eat,eat,approach,pos,approach-pos,1,1,768.3000000002794
sub-108,218,2,FALSE,left,approach,pos,cake16_crop.jpg,3,22,TRUE,217,1,2290.7039,108,EAT                                    DON'T EAT,2289.8071,2271.6587,2076.8928,right,1,left,left,eat,eat,approach,pos,approach-pos,1,1,896.7999999998137
sub-108,219,2,TRUE,left,avoid,neg,fungus35_crop.jpg,3,22,TRUE,218,2,2292.6145,108,EAT                                    DON'T EAT,2291.8254,2271.6587,2076.8928,right,2,right,right,not_eat,not_eat,approach,pos,approach-pos,1,1,789.0999999996275
sub-108,220,2,TRUE,left,avoid,pos,meat22_crop.jpg,3,22,TRUE,219,2,2294.8682,108,EAT                                    DON'T EAT,2293.8438,2271.6587,2076.8928,right,2,right,right,not_eat,not_eat,approach,pos,approach-pos,1,1,1024.3999999994412
sub-108,221,2,TRUE,left,avoid,neg,fungus24_crop.jpg,3,23,TRUE,220,2,2314.023,108,EAT                                    DON'T EAT,2313.2766,2309.2568,2076.8928,right,2,right,right,not_eat,not_eat,approach,neg,approach-neg,1,1,746.3999999999069
sub-108,222,2,FALSE,left,approach,neg,insect17_crop.jpg,3,23,TRUE,221,1,2316.0005,108,EAT                                    DON'T EAT,2315.2952,2309.2568,2076.8928,right,1,left,left,eat,eat,approach,neg,approach-neg,1,1,705.2999999998137
sub-108,223,2,FALSE,left,approach,neg,insect13_crop.jpg,3,23,TRUE,222,1,2317.8489,108,EAT                                    DON'T EAT,2317.3132,2309.2568,2076.8928,right,1,left,left,eat,eat,approach,neg,approach-neg,1,1,535.6999999997206
sub-108,224,2,FALSE,left,approach,neg,insect31_crop.jpg,3,23,TRUE,223,1,2320.6497,108,EAT                                    DON'T EAT,2319.3315,2309.2568,2076.8928,right,1,left,left,eat,eat,approach,neg,approach-neg,1,1,1318.1999999997206
sub-108,225,2,FALSE,left,approach,neg,insect32_crop.jpg,3,23,TRUE,224,1,2321.899,108,EAT                                    DON'T EAT,2321.35,2309.2568,2076.8928,right,1,left,left,eat,eat,approach,neg,approach-neg,1,1,549
sub-108,226,2,FALSE,left,approach,neg,insect4_crop.jpg,3,23,TRUE,225,1,2324.011,108,EAT                                    DON'T EAT,2323.368,2309.2568,2076.8928,right,1,left,left,eat,eat,approach,neg,approach-neg,1,1,643
sub-108,227,2,FALSE,left,approach,neg,insect18_crop.jpg,3,23,TRUE,226,1,2325.9434,108,EAT                                    DON'T EAT,2325.3867,2309.2568,2076.8928,right,1,left,left,eat,eat,approach,neg,approach-neg,1,1,556.6999999997206
sub-108,228,2,FALSE,left,approach,neg,insect24_crop.jpg,3,23,TRUE,227,1,2327.9785,108,EAT                                    DON'T EAT,2327.405,2309.2568,2076.8928,right,1,left,left,eat,eat,approach,neg,approach-neg,1,1,573.5
sub-108,229,2,TRUE,left,avoid,pos,meat31_crop.jpg,3,23,TRUE,228,2,2330.3835,108,EAT                                    DON'T EAT,2329.4233,2309.2568,2076.8928,right,2,right,right,not_eat,not_eat,approach,neg,approach-neg,1,1,960.2000000001863
sub-108,230,2,FALSE,left,approach,neg,insect35_crop.jpg,3,23,TRUE,229,1,2332.2017,108,EAT                                    DON'T EAT,2331.4417,2309.2568,2076.8928,right,1,left,left,eat,eat,approach,neg,approach-neg,1,1,760.0000000004657
sub-108,231,0,FALSE,left,approach,neg,insect22_crop.jpg,3,24,TRUE,230,1,2351.6162,108,EAT                                    DON'T EAT,2350.908,2346.888,2076.8928,right,1,left,left,eat,eat,approach,neg,approach-neg,1,1,708.1999999997206
sub-108,232,0,FALSE,left,approach,neg,insect37_crop.jpg,3,24,TRUE,231,1,2353.5798,108,EAT                                    DON'T EAT,2352.9263,2346.888,2076.8928,right,1,left,left,eat,eat,approach,neg,approach-neg,1,1,653.4999999995343
sub-108,233,0,FALSE,left,approach,neg,insect23_crop.jpg,3,24,TRUE,232,1,2356.549,108,EAT                                    DON'T EAT,2354.9446,2346.888,2076.8928,right,1,left,left,eat,eat,approach,neg,approach-neg,1,1,1604.4000000003725
sub-108,234,0,FALSE,left,approach,neg,insect30_crop.jpg,3,24,TRUE,233,1,2357.574,108,EAT                                    DON'T EAT,2356.963,2346.888,2076.8928,right,1,left,left,eat,eat,approach,neg,approach-neg,1,1,611
sub-108,235,0,TRUE,left,avoid,neg,fungus27_crop.jpg,3,24,TRUE,234,2,2359.761,108,EAT                                    DON'T EAT,2358.9812,2346.888,2076.8928,right,2,right,right,not_eat,not_eat,approach,neg,approach-neg,1,1,779.7999999998137
sub-108,236,0,FALSE,left,approach,neg,insect20_crop.jpg,3,24,TRUE,235,1,2361.7603,108,EAT                                    DON'T EAT,2360.9993,2346.888,2076.8928,right,1,left,left,eat,eat,approach,neg,approach-neg,1,1,761
sub-108,237,0,FALSE,left,approach,neg,insect40_crop.jpg,3,24,TRUE,236,1,2363.6816,108,EAT                                    DON'T EAT,2363.0178,2346.888,2076.8928,right,1,left,left,eat,eat,approach,neg,approach-neg,1,1,663.7999999998137
sub-108,238,0,FALSE,left,approach,neg,insect1_crop.jpg,3,24,TRUE,237,1,2365.8674,108,EAT                                    DON'T EAT,2365.0361,2346.888,2076.8928,right,1,left,left,eat,eat,approach,neg,approach-neg,1,1,831.3000000002794
sub-108,239,0,TRUE,left,avoid,pos,meat26_crop.jpg,3,24,TRUE,238,2,2367.805,108,EAT                                    DON'T EAT,2367.0547,2346.888,2076.8928,right,2,right,right,not_eat,not_eat,approach,neg,approach-neg,1,1,750.2999999998137
sub-108,240,0,FALSE,left,approach,neg,insect14_crop.jpg,3,24,TRUE,239,1,2370.4941,108,EAT                                    DON'T EAT,2369.073,2346.888,2076.8928,right,1,left,left,eat,eat,approach,neg,approach-neg,1,1,1421.1000000000931
sub-108,241,1,FALSE,right,avoid,neg,fungus24_crop.jpg,4,25,TRUE,240,2,2451.657,108,EAT                                    DON'T EAT,2450.9077,2446.8875,2436.6777,left,2,right,right,not_eat,not_eat,avoid,neg,avoid-neg,1,1,749.2999999998137
sub-108,242,1,FALSE,right,avoid,neg,fungus18_crop.jpg,4,25,TRUE,241,2,2453.495,108,EAT                                    DON'T EAT,2452.9258,2446.8875,2436.6777,left,2,right,right,not_eat,not_eat,avoid,neg,avoid-neg,1,1,569.2000000001863
sub-108,243,1,TRUE,right,approach,neg,insect39_crop.jpg,4,25,TRUE,242,1,2455.6318,108,EAT                                    DON'T EAT,2454.944,2446.8875,2436.6777,left,1,left,left,eat,eat,avoid,neg,avoid-neg,1,1,687.8000000002794
sub-108,244,1,FALSE,right,avoid,neg,fungus11_crop.jpg,4,25,TRUE,243,2,2457.6484,108,EAT                                    DON'T EAT,2456.9626,2446.8875,2436.6777,left,2,right,right,not_eat,not_eat,avoid,neg,avoid-neg,1,1,685.8000000002794
sub-108,245,1,FALSE,right,avoid,neg,fungus17_crop.jpg,4,25,TRUE,244,2,2459.5923,108,EAT                                    DON'T EAT,2458.981,2446.8875,2436.6777,left,2,right,right,not_eat,not_eat,avoid,neg,avoid-neg,1,1,611.2999999998137
sub-108,246,1,FALSE,right,avoid,neg,fungus27_crop.jpg,4,25,TRUE,245,2,2461.6416,108,EAT                                    DON'T EAT,2460.9993,2446.8875,2436.6777,left,2,right,right,not_eat,not_eat,avoid,neg,avoid-neg,1,1,642.3000000002794
sub-108,247,1,TRUE,right,approach,pos,cake7_crop.jpg,4,25,TRUE,246,1,2463.724,108,EAT                                    DON'T EAT,2463.0176,2446.8875,2436.6777,left,1,left,left,eat,eat,avoid,neg,avoid-neg,1,1,706.3999999999069
sub-108,248,1,FALSE,right,avoid,neg,fungus31_crop.jpg,4,25,TRUE,247,2,2465.8044,108,EAT                                    DON'T EAT,2465.036,2446.8875,2436.6777,left,2,right,right,not_eat,not_eat,avoid,neg,avoid-neg,1,1,768.3999999999069
sub-108,249,1,FALSE,right,avoid,neg,fungus13_crop.jpg,4,25,TRUE,248,2,2467.9392,108,EAT                                    DON'T EAT,2467.0542,2446.8875,2436.6777,left,2,right,right,not_eat,not_eat,avoid,neg,avoid-neg,1,1,884.9999999995343
sub-108,250,1,FALSE,right,avoid,neg,fungus7_crop.jpg,4,25,TRUE,249,2,2469.7583,108,EAT                                    DON'T EAT,2469.0725,2446.8875,2436.6777,left,2,right,right,not_eat,not_eat,avoid,neg,avoid-neg,1,1,685.7999999998137
sub-108,251,1,TRUE,right,approach,pos,cake17_crop.jpg,4,26,TRUE,250,1,2487.977,108,EAT                                    DON'T EAT,2487.0708,2483.0508,2436.6777,left,1,left,left,eat,eat,avoid,pos,avoid-pos,1,1,906.2000000001863
sub-108,252,1,FALSE,right,avoid,pos,meat14_crop.jpg,4,26,TRUE,251,2,2490.0188,108,EAT                                    DON'T EAT,2489.0894,2483.0508,2436.6777,left,2,right,right,not_eat,not_eat,avoid,pos,avoid-pos,1,1,929.3999999999069
sub-108,253,1,FALSE,right,avoid,pos,meat35_crop.jpg,4,26,TRUE,252,2,2491.922,108,EAT                                    DON'T EAT,2491.1074,2483.0508,2436.6777,left,2,right,right,not_eat,not_eat,avoid,pos,avoid-pos,1,1,814.6000000000931
sub-108,254,1,FALSE,right,avoid,pos,meat9_crop.jpg,4,26,TRUE,253,2,2493.82,108,EAT                                    DON'T EAT,2493.126,2483.0508,2436.6777,left,2,right,right,not_eat,not_eat,avoid,pos,avoid-pos,1,1,694
sub-108,255,1,FALSE,right,avoid,pos,meat1_crop.jpg,4,26,TRUE,254,2,2495.881,108,EAT                                    DON'T EAT,2495.1443,2483.0508,2436.6777,left,2,right,right,not_eat,not_eat,avoid,pos,avoid-pos,1,1,736.7000000001863
sub-108,256,1,TRUE,right,approach,neg,insect13_crop.jpg,4,26,TRUE,255,1,2497.8904000000002,108,EAT                                    DON'T EAT,2497.1626,2483.0508,2436.6777,left,1,left,left,eat,eat,avoid,pos,avoid-pos,1,1,727.8000000002794
sub-108,257,1,FALSE,right,avoid,pos,meat40_crop.jpg,4,26,TRUE,256,2,2499.8994,108,EAT                                    DON'T EAT,2499.1812,2483.0508,2436.6777,left,2,right,right,not_eat,not_eat,avoid,pos,avoid-pos,1,1,718.1999999997206
sub-108,258,1,FALSE,right,avoid,pos,meat3_crop.jpg,4,26,TRUE,257,2,2502.8884,108,EAT                                    DON'T EAT,2501.199,2483.0508,2436.6777,left,2,right,right,not_eat,not_eat,avoid,pos,avoid-pos,1,1,1689.3999999999069
sub-108,259,1,FALSE,right,avoid,pos,meat29_crop.jpg,4,26,TRUE,258,2,2503.8628,108,EAT                                    DON'T EAT,2503.2175,2483.0508,2436.6777,left,2,right,right,not_eat,not_eat,avoid,pos,avoid-pos,1,1,645.2999999998137
sub-108,260,1,FALSE,right,avoid,pos,meat2_crop.jpg,4,26,TRUE,259,2,2506.0977,108,EAT                                    DON'T EAT,2505.236,2483.0508,2436.6777,left,2,right,right,not_eat,not_eat,avoid,pos,avoid-pos,1,1,861.6999999997206
sub-108,261,3,FALSE,left,approach,pos,cake31_crop.jpg,4,27,TRUE,260,1,2524.5623,108,EAT                                    DON'T EAT,2523.7178,2519.6978,2436.6777,left,1,left,left,eat,eat,approach,pos,approach-pos,1,1,844.5000000004657
sub-108,262,3,TRUE,left,avoid,pos,meat13_crop.jpg,4,27,TRUE,261,2,2526.443,108,EAT                                    DON'T EAT,2525.7363,2519.6978,2436.6777,left,2,right,right,not_eat,not_eat,approach,pos,approach-pos,1,1,706.7000000001863
sub-108,263,3,FALSE,left,approach,pos,cake21_crop.jpg,4,27,TRUE,262,1,2528.567,108,EAT                                    DON'T EAT,2527.755,2519.6978,2436.6777,left,1,left,left,eat,eat,approach,pos,approach-pos,1,1,812
sub-108,264,3,FALSE,left,approach,pos,cake39_crop.jpg,4,27,TRUE,263,1,2530.6042,108,EAT                                    DON'T EAT,2529.7732,2519.6978,2436.6777,left,1,left,left,eat,eat,approach,pos,approach-pos,1,1,831
sub-108,265,3,FALSE,left,approach,pos,cake1_crop.jpg,4,27,TRUE,264,1,2532.3916,108,EAT                                    DON'T EAT,2531.7913,2519.6978,2436.6777,left,1,left,left,eat,eat,approach,pos,approach-pos,1,1,600.3000000002794
sub-108,266,3,TRUE,left,avoid,neg,fungus25_crop.jpg,4,27,TRUE,265,2,2534.5488,108,EAT                                    DON'T EAT,2533.8096,2519.6978,2436.6777,left,2,right,right,not_eat,not_eat,approach,pos,approach-pos,1,1,739.1999999997206
sub-108,267,3,FALSE,left,approach,pos,cake40_crop.jpg,4,27,TRUE,266,1,2536.5027,108,EAT                                    DON'T EAT,2535.8281,2519.6978,2436.6777,left,1,left,left,eat,eat,approach,pos,approach-pos,1,1,674.6000000000931
sub-108,268,3,FALSE,left,approach,pos,cake9_crop.jpg,4,27,TRUE,267,1,2538.811,108,EAT                                    DON'T EAT,2537.8464,2519.6978,2436.6777,left,1,left,left,eat,eat,approach,pos,approach-pos,1,1,964.6000000000931
sub-108,269,3,FALSE,left,approach,pos,cake2_crop.jpg,4,27,TRUE,268,1,2541.067,108,EAT                                    DON'T EAT,2539.8645,2519.6978,2436.6777,left,1,left,left,eat,eat,approach,pos,approach-pos,1,1,1202.5
sub-108,270,3,FALSE,left,approach,pos,cake37_crop.jpg,4,27,TRUE,269,1,2542.4626,108,EAT                                    DON'T EAT,2541.883,2519.6978,2436.6777,left,1,left,left,eat,eat,approach,pos,approach-pos,1,1,579.5999999996275
sub-108,271,1,FALSE,left,approach,pos,cake26_crop.jpg,4,28,TRUE,270,1,2561.4712,108,EAT                                    DON'T EAT,2560.6985,2556.6787,2436.6777,left,1,left,left,eat,eat,approach,pos,approach-pos,1,1,772.7000000001863
sub-108,272,1,FALSE,left,approach,pos,cake38_crop.jpg,4,28,TRUE,271,1,2563.2974,108,EAT                                    DON'T EAT,2562.717,2556.6787,2436.6777,left,1,left,left,eat,eat,approach,pos,approach-pos,1,1,580.3999999999069
sub-108,273,1,FALSE,left,approach,pos,cake28_crop.jpg,4,28,TRUE,272,1,2565.335,108,EAT                                    DON'T EAT,2564.7354,2556.6787,2436.6777,left,1,left,left,eat,eat,approach,pos,approach-pos,1,1,599.6000000000931
sub-108,274,1,FALSE,left,approach,pos,cake8_crop.jpg,4,28,TRUE,273,1,2567.4822,108,EAT                                    DON'T EAT,2566.7534,2556.6787,2436.6777,left,1,left,left,eat,eat,approach,pos,approach-pos,1,1,728.7999999998137
sub-108,275,1,FALSE,left,approach,pos,cake35_crop.jpg,4,28,TRUE,274,1,2569.5205,108,EAT                                    DON'T EAT,2568.7722,2556.6787,2436.6777,left,1,left,left,eat,eat,approach,pos,approach-pos,1,1,748.3000000002794
sub-108,276,1,FALSE,left,approach,pos,cake13_crop.jpg,4,28,TRUE,275,1,2571.4873,108,EAT                                    DON'T EAT,2570.7903,2556.6787,2436.6777,left,1,left,left,eat,eat,approach,pos,approach-pos,1,1,696.9999999995343
sub-108,277,1,TRUE,left,avoid,neg,fungus32_crop.jpg,4,28,TRUE,276,2,2573.6099,108,EAT                                    DON'T EAT,2572.8086,2556.6787,2436.6777,left,2,right,right,not_eat,not_eat,approach,pos,approach-pos,1,1,801.3000000002794
sub-108,278,1,FALSE,left,approach,pos,cake7_crop.jpg,4,28,TRUE,277,1,2575.688,108,EAT                                    DON'T EAT,2574.8271,2556.6787,2436.6777,left,1,left,left,eat,eat,approach,pos,approach-pos,1,1,860.8999999999069
sub-108,279,1,FALSE,left,approach,pos,cake14_crop.jpg,4,28,TRUE,278,1,2577.512,108,EAT                                    DON'T EAT,2576.8455,2556.6787,2436.6777,left,1,left,left,eat,eat,approach,pos,approach-pos,1,1,666.5
sub-108,280,1,TRUE,left,avoid,pos,meat34_crop.jpg,4,28,TRUE,279,2,2580.2893,108,EAT                                    DON'T EAT,2578.8638,2556.6787,2436.6777,left,2,right,right,not_eat,not_eat,approach,pos,approach-pos,1,1,1425.4999999995343
sub-108,281,2,FALSE,left,avoid,neg,fungus26_crop.jpg,4,29,TRUE,280,2,2599.493,108,EAT                                    DON'T EAT,2598.797,2594.7769,2436.6777,left,2,right,right,not_eat,not_eat,avoid,neg,avoid-neg,1,1,696
sub-108,282,2,FALSE,left,avoid,neg,fungus34_crop.jpg,4,29,TRUE,281,2,2601.388,108,EAT                                    DON'T EAT,2600.8152,2594.7769,2436.6777,left,2,right,right,not_eat,not_eat,avoid,neg,avoid-neg,1,1,572.7999999998137
sub-108,283,2,FALSE,left,avoid,neg,fungus5_crop.jpg,4,29,TRUE,282,2,2603.5303,108,EAT                                    DON'T EAT,2602.8337,2594.7769,2436.6777,left,2,right,right,not_eat,not_eat,avoid,neg,avoid-neg,1,1,696.5999999996275
sub-108,284,2,FALSE,left,avoid,neg,fungus4_crop.jpg,4,29,TRUE,283,2,2605.4624,108,EAT                                    DON'T EAT,2604.852,2594.7769,2436.6777,left,2,right,right,not_eat,not_eat,avoid,neg,avoid-neg,1,1,610.3999999999069
sub-108,285,2,FALSE,left,avoid,neg,fungus31_crop.jpg,4,29,TRUE,284,2,2607.47,108,EAT                                    DON'T EAT,2606.8704,2594.7769,2436.6777,left,2,right,right,not_eat,not_eat,avoid,neg,avoid-neg,1,1,599.6000000000931
sub-108,286,2,TRUE,left,approach,pos,cake3_crop.jpg,4,29,TRUE,285,1,2609.5957,108,EAT                                    DON'T EAT,2608.8887,2594.7769,2436.6777,left,1,left,left,eat,eat,avoid,neg,avoid-neg,1,1,706.9999999995343
sub-108,287,2,FALSE,left,avoid,neg,fungus13_crop.jpg,4,29,TRUE,286,2,2611.6484,108,EAT                                    DON'T EAT,2610.9072,2594.7769,2436.6777,left,2,right,right,not_eat,not_eat,avoid,neg,avoid-neg,1,1,741.1999999997206
sub-108,288,2,TRUE,left,approach,neg,insect36_crop.jpg,4,29,TRUE,287,1,2614.181,108,EAT                                    DON'T EAT,2612.9255,2594.7769,2436.6777,left,1,left,left,eat,eat,avoid,neg,avoid-neg,1,1,1255.5
sub-108,289,2,FALSE,left,avoid,neg,fungus6_crop.jpg,4,29,TRUE,288,2,2615.7766,108,EAT                                    DON'T EAT,2614.9436,2594.7769,2436.6777,left,2,right,right,not_eat,not_eat,avoid,neg,avoid-neg,1,1,833
sub-108,290,2,FALSE,left,avoid,neg,fungus12_crop.jpg,4,29,TRUE,289,2,2617.68,108,EAT                                    DON'T EAT,2616.962,2594.7769,2436.6777,left,2,right,right,not_eat,not_eat,avoid,neg,avoid-neg,1,1,718
sub-108,291,2,FALSE,right,approach,pos,cake19_crop.jpg,4,30,TRUE,290,1,2634.489,108,EAT                                    DON'T EAT,2633.8262,2629.8062,2436.6777,left,1,left,left,eat,eat,approach,pos,approach-pos,1,1,662.7999999998137
sub-108,292,2,FALSE,right,approach,pos,cake34_crop.jpg,4,30,TRUE,291,1,2636.4873,108,EAT                                    DON'T EAT,2635.8442,2629.8062,2436.6777,left,1,left,left,eat,eat,approach,pos,approach-pos,1,1,643.0999999996275
sub-108,293,2,FALSE,right,approach,pos,cake1_crop.jpg,4,30,TRUE,292,1,2638.5168,108,EAT                                    DON'T EAT,2637.8625,2629.8062,2436.6777,left,1,left,left,eat,eat,approach,pos,approach-pos,1,1,654.2999999998137
sub-108,294,2,TRUE,right,avoid,neg,fungus10_crop.jpg,4,30,TRUE,293,2,2640.5793,108,EAT                                    DON'T EAT,2639.881,2629.8062,2436.6777,left,2,right,right,not_eat,not_eat,approach,pos,approach-pos,1,1,698.2999999998137
sub-108,295,2,FALSE,right,approach,pos,cake8_crop.jpg,4,30,TRUE,294,1,2642.6145,108,EAT                                    DON'T EAT,2641.8994,2629.8062,2436.6777,left,1,left,left,eat,eat,approach,pos,approach-pos,1,1,715.1000000000931
sub-108,296,2,FALSE,right,approach,pos,cake5_crop.jpg,4,30,TRUE,295,1,2645.2222,108,EAT                                    DON'T EAT,2643.9177,2629.8062,2436.6777,left,1,left,left,eat,eat,approach,pos,approach-pos,1,1,1304.5
sub-108,297,2,FALSE,right,approach,pos,cake40_crop.jpg,4,30,TRUE,296,1,2646.8215,108,EAT                                    DON'T EAT,2645.936,2629.8062,2436.6777,left,1,left,left,eat,eat,approach,pos,approach-pos,1,1,885.5
sub-108,298,2,FALSE,right,approach,pos,cake28_crop.jpg,4,30,TRUE,297,1,2648.5027,108,EAT                                    DON'T EAT,2647.9546,2629.8062,2436.6777,left,1,left,left,eat,eat,approach,pos,approach-pos,1,1,548.1000000000931
sub-108,299,2,FALSE,right,approach,pos,cake27_crop.jpg,4,30,TRUE,298,1,2650.6045,108,EAT                                    DON'T EAT,2649.9727,2629.8062,2436.6777,left,1,left,left,eat,eat,approach,pos,approach-pos,1,1,631.8000000002794
sub-108,300,2,TRUE,right,avoid,pos,meat20_crop.jpg,4,30,TRUE,299,2,2652.7107,108,EAT                                    DON'T EAT,2651.9912,2629.8062,2436.6777,left,2,right,right,not_eat,not_eat,approach,pos,approach-pos,1,1,719.5000000004657
sub-108,301,3,FALSE,right,avoid,neg,fungus35_crop.jpg,4,31,TRUE,300,2,2668.94,108,EAT                                    DON'T EAT,2668.138,2664.118,2436.6777,left,2,right,right,not_eat,not_eat,avoid,neg,avoid-neg,1,1,802
sub-108,302,3,FALSE,right,avoid,neg,fungus15_crop.jpg,4,31,TRUE,301,2,2670.7158,108,EAT                                    DON'T EAT,2670.1562,2664.118,2436.6777,left,2,right,right,not_eat,not_eat,avoid,neg,avoid-neg,1,1,559.6000000000931
sub-108,303,3,FALSE,right,avoid,neg,fungus34_crop.jpg,4,31,TRUE,302,2,2672.8298,108,EAT                                    DON'T EAT,2672.1746,2664.118,2436.6777,left,2,right,right,not_eat,not_eat,avoid,neg,avoid-neg,1,1,655.2000000001863
sub-108,304,3,FALSE,right,avoid,neg,fungus32_crop.jpg,4,31,TRUE,303,2,2674.8645,108,EAT                                    DON'T EAT,2674.1929,2664.118,2436.6777,left,2,right,right,not_eat,not_eat,avoid,neg,avoid-neg,1,1,671.6000000000931
sub-108,305,3,FALSE,right,avoid,neg,fungus39_crop.jpg,4,31,TRUE,304,2,2676.843,108,EAT                                    DON'T EAT,2676.2112,2664.118,2436.6777,left,2,right,right,not_eat,not_eat,avoid,neg,avoid-neg,1,1,631.7999999998137
sub-108,306,3,FALSE,right,avoid,neg,fungus37_crop.jpg,4,31,TRUE,305,2,2678.955,108,EAT                                    DON'T EAT,2678.2292,2664.118,2436.6777,left,2,right,right,not_eat,not_eat,avoid,neg,avoid-neg,1,1,725.7999999998137
sub-108,307,3,TRUE,right,approach,pos,cake21_crop.jpg,4,31,TRUE,306,1,2681.0178,108,EAT                                    DON'T EAT,2680.248,2664.118,2436.6777,left,1,left,left,eat,eat,avoid,neg,avoid-neg,1,1,769.8000000002794
sub-108,308,3,FALSE,right,avoid,neg,fungus8_crop.jpg,4,31,TRUE,307,2,2682.95,108,EAT                                    DON'T EAT,2682.2664,2664.118,2436.6777,left,2,right,right,not_eat,not_eat,avoid,neg,avoid-neg,1,1,683.6000000000931
sub-108,309,3,FALSE,right,avoid,neg,fungus33_crop.jpg,4,31,TRUE,308,2,2684.9922,108,EAT                                    DON'T EAT,2684.2847,2664.118,2436.6777,left,2,right,right,not_eat,not_eat,avoid,neg,avoid-neg,1,1,707.5
sub-108,310,3,TRUE,right,approach,neg,insect12_crop.jpg,4,31,TRUE,309,1,2686.9553,108,EAT                                    DON'T EAT,2686.303,2664.118,2436.6777,left,1,left,left,eat,eat,avoid,neg,avoid-neg,1,1,652.3000000002794
sub-108,311,2,FALSE,right,avoid,pos,meat30_crop.jpg,4,32,TRUE,310,2,2703.397,108,EAT                                    DON'T EAT,2702.7,2698.68,2436.6777,left,2,right,right,not_eat,not_eat,avoid,pos,avoid-pos,1,1,697
sub-108,312,2,FALSE,right,avoid,pos,meat27_crop.jpg,4,32,TRUE,311,2,2705.52,108,EAT                                    DON'T EAT,2704.718,2698.68,2436.6777,left,2,right,right,not_eat,not_eat,avoid,pos,avoid-pos,1,1,802
sub-108,313,2,FALSE,right,avoid,pos,meat36_crop.jpg,4,32,TRUE,312,2,2707.7146,108,EAT                                    DON'T EAT,2706.7368,2698.68,2436.6777,left,2,right,right,not_eat,not_eat,avoid,pos,avoid-pos,1,1,977.7999999993481
sub-108,314,2,TRUE,right,approach,pos,cake35_crop.jpg,4,32,TRUE,313,2,2709.7688,108,EAT                                    DON'T EAT,2708.7551,2698.68,2436.6777,left,2,right,right,not_eat,not_eat,avoid,pos,avoid-pos,0,0,1013.7000000001863
sub-108,315,2,FALSE,right,avoid,pos,meat8_crop.jpg,4,32,TRUE,314,2,2711.7454,108,EAT                                    DON'T EAT,2710.7734,2698.68,2436.6777,left,2,right,right,not_eat,not_eat,avoid,pos,avoid-pos,1,1,972
sub-108,316,2,FALSE,right,avoid,pos,meat21_crop.jpg,4,32,TRUE,315,2,2713.6028,108,EAT                                    DON'T EAT,2712.7915,2698.68,2436.6777,left,2,right,right,not_eat,not_eat,avoid,pos,avoid-pos,1,1,811.3000000002794
sub-108,317,2,FALSE,right,avoid,pos,meat6_crop.jpg,4,32,TRUE,316,2,2715.571,108,EAT                                    DON'T EAT,2714.8098,2698.68,2436.6777,left,2,right,right,not_eat,not_eat,avoid,pos,avoid-pos,1,1,761.2000000001863
sub-108,318,2,TRUE,right,approach,neg,insect8_crop.jpg,4,32,TRUE,317,1,2717.5354,108,EAT                                    DON'T EAT,2716.8281,2698.68,2436.6777,left,1,left,left,eat,eat,avoid,pos,avoid-pos,1,1,707.3000000002794
sub-108,319,2,FALSE,right,avoid,pos,meat22_crop.jpg,4,32,TRUE,318,2,2720.3,108,EAT                                    DON'T EAT,2718.8464,2698.68,2436.6777,left,2,right,right,not_eat,not_eat,avoid,pos,avoid-pos,1,1,1453.6000000000931
sub-108,320,2,FALSE,right,avoid,pos,meat39_crop.jpg,4,32,TRUE,319,2,2721.7507,108,EAT                                    DON'T EAT,2720.865,2698.68,2436.6777,left,2,right,right,not_eat,not_eat,avoid,pos,avoid-pos,1,1,885.7000000001863
