subject,trial_number,n_block,catch,hand,mot,val,stim_name,run_number,num_block,ran,order,response,time_of_response,subject_number,left_side_resp_label,trial_onset,blk_instr_onset,baseline_onset,response_hand,response_cleaned,response_lat,response_lat_cleaned,response_meaning,response_meaning_cleaned,condition_mot,condition_val,condition,correct,correct_cleaned,rt
sub-053,1,3,FALSE,left,avoid,pos,meat28_crop.jpg,1,1,TRUE,0,1,1666.0093,53,DON'T EAT                                    EAT,1664.4725,1660.4529,1649.0217,left,1,left,left,not_eat,not_eat,avoid,pos,avoid-pos,1,1,1536.8000000000466
sub-053,2,3,FALSE,left,avoid,pos,meat20_crop.jpg,1,1,TRUE,1,1,1667.3081,53,DON'T EAT                                    EAT,1666.4911,1660.4529,1649.0217,left,1,left,left,not_eat,not_eat,avoid,pos,avoid-pos,1,1,817
sub-053,3,3,FALSE,left,avoid,pos,meat27_crop.jpg,1,1,TRUE,2,1,1669.2695,53,DON'T EAT                                    EAT,1668.5094,1660.4529,1649.0217,left,1,left,left,not_eat,not_eat,avoid,pos,avoid-pos,1,1,760.1000000000931
sub-053,4,3,FALSE,left,avoid,pos,meat14_crop.jpg,1,1,TRUE,3,1,1671.7975,53,DON'T EAT                                    EAT,1670.5308,1660.4529,1649.0217,left,1,left,left,not_eat,not_eat,avoid,pos,avoid-pos,1,1,1266.6999999999534
sub-053,5,3,TRUE,left,approach,neg,insect26_crop.jpg,1,1,TRUE,4,2,1673.5851,53,DON'T EAT                                    EAT,1672.5486,1660.4529,1649.0217,left,2,right,right,eat,eat,avoid,pos,avoid-pos,1,1,1036.5
sub-053,6,3,FALSE,left,avoid,pos,meat4_crop.jpg,1,1,TRUE,5,1,1675.5901,53,DON'T EAT                                    EAT,1674.5643,1660.4529,1649.0217,left,1,left,left,not_eat,not_eat,avoid,pos,avoid-pos,1,1,1025.7999999998137
sub-053,7,3,FALSE,left,avoid,pos,meat19_crop.jpg,1,1,TRUE,6,1,1677.6501,53,DON'T EAT                                    EAT,1676.5825,1660.4529,1649.0217,left,1,left,left,not_eat,not_eat,avoid,pos,avoid-pos,1,1,1067.6000000000931
sub-053,8,3,FALSE,left,avoid,pos,meat15_crop.jpg,1,1,TRUE,7,1,1679.219,53,DON'T EAT                                    EAT,1678.6013,1660.4529,1649.0217,left,1,left,left,not_eat,not_eat,avoid,pos,avoid-pos,1,1,617.6999999999534
sub-053,9,3,TRUE,left,approach,pos,cake7_crop.jpg,1,1,TRUE,8,2,1681.7245,53,DON'T EAT                                    EAT,1680.6194,1660.4529,1649.0217,left,2,right,right,eat,eat,avoid,pos,avoid-pos,1,1,1105.0999999998603
sub-053,10,3,FALSE,left,avoid,pos,meat17_crop.jpg,1,1,TRUE,9,1,1683.3346,53,DON'T EAT                                    EAT,1682.6377,1660.4529,1649.0217,left,1,left,left,not_eat,not_eat,avoid,pos,avoid-pos,1,1,696.8999999999069
sub-053,11,1,FALSE,left,approach,neg,insect34_crop.jpg,1,2,TRUE,10,1,1702.5714,53,DON'T EAT                                    EAT,1701.3535,1697.3331,1649.0217,left,1,left,left,not_eat,not_eat,approach,neg,approach-neg,0,0,1217.9000000001397
sub-053,12,1,FALSE,left,approach,neg,insect5_crop.jpg,1,2,TRUE,11,1,1703.955,53,DON'T EAT                                    EAT,1703.372,1697.3331,1649.0217,left,1,left,left,not_eat,not_eat,approach,neg,approach-neg,0,0,583
sub-053,13,1,FALSE,left,approach,neg,insect15_crop.jpg,1,2,TRUE,12,1,1706.037,53,DON'T EAT                                    EAT,1705.3901,1697.3331,1649.0217,left,1,left,left,not_eat,not_eat,approach,neg,approach-neg,0,0,646.8999999999069
sub-053,14,1,FALSE,left,approach,neg,insect33_crop.jpg,1,2,TRUE,13,1,1707.9902,53,DON'T EAT                                    EAT,1707.4084,1697.3331,1649.0217,left,1,left,left,not_eat,not_eat,approach,neg,approach-neg,0,0,581.7999999998137
sub-053,15,1,FALSE,left,approach,neg,insect23_crop.jpg,1,2,TRUE,14,1,1709.9347,53,DON'T EAT                                    EAT,1709.4269,1697.3331,1649.0217,left,1,left,left,not_eat,not_eat,approach,neg,approach-neg,0,0,507.80000000004657
sub-053,16,1,FALSE,left,approach,neg,insect32_crop.jpg,1,2,TRUE,15,1,1711.9407,53,DON'T EAT                                    EAT,1711.445,1697.3331,1649.0217,left,1,left,left,not_eat,not_eat,approach,neg,approach-neg,0,0,495.70000000018626
sub-053,17,1,TRUE,left,avoid,pos,meat16_crop.jpg,1,2,TRUE,16,2,1714.3085,53,DON'T EAT                                    EAT,1713.4635,1697.3331,1649.0217,left,2,right,right,eat,eat,approach,neg,approach-neg,0,0,845
sub-053,18,1,FALSE,left,approach,neg,insect10_crop.jpg,1,2,TRUE,17,1,1716.128,53,DON'T EAT                                    EAT,1715.4819,1697.3331,1649.0217,left,1,left,left,not_eat,not_eat,approach,neg,approach-neg,0,0,646.1000000000931
sub-053,19,1,TRUE,left,avoid,neg,fungus2_crop.jpg,1,2,TRUE,18,2,1718.5052,53,DON'T EAT                                    EAT,1717.5002,1697.3331,1649.0217,left,2,right,right,eat,eat,approach,neg,approach-neg,0,0,1005
sub-053,20,1,FALSE,left,approach,neg,insect12_crop.jpg,1,2,TRUE,19,1,1720.1866,53,DON'T EAT                                    EAT,1719.5186,1697.3331,1649.0217,left,1,left,left,not_eat,not_eat,approach,neg,approach-neg,0,0,668
sub-053,21,2,FALSE,left,avoid,neg,fungus22_crop.jpg,1,3,TRUE,20,2,1739.294,53,DON'T EAT                                    EAT,1738.0507,1734.0304,1649.0217,left,2,right,right,eat,eat,avoid,neg,avoid-neg,0,0,1243.3000000000466
sub-053,22,2,FALSE,left,avoid,neg,fungus21_crop.jpg,1,3,TRUE,21,2,1740.7245,53,DON'T EAT                                    EAT,1740.0688,1734.0304,1649.0217,left,2,right,right,eat,eat,avoid,neg,avoid-neg,0,0,655.6999999999534
sub-053,23,2,FALSE,left,avoid,neg,fungus9_crop.jpg,1,3,TRUE,22,2,1742.555,53,DON'T EAT                                    EAT,1742.0873,1734.0304,1649.0217,left,2,right,right,eat,eat,avoid,neg,avoid-neg,0,0,467.70000000018626
sub-053,24,2,TRUE,left,approach,neg,insect8_crop.jpg,1,3,TRUE,23,1,1745.0488,53,DON'T EAT                                    EAT,1744.1057,1734.0304,1649.0217,left,1,left,left,not_eat,not_eat,avoid,neg,avoid-neg,0,0,943.0999999998603
sub-053,25,2,FALSE,left,avoid,neg,fungus30_crop.jpg,1,3,TRUE,24,2,1746.9283,53,DON'T EAT                                    EAT,1746.124,1734.0304,1649.0217,left,2,right,right,eat,eat,avoid,neg,avoid-neg,0,0,804.3000000000466
sub-053,26,2,TRUE,left,approach,pos,cake16_crop.jpg,1,3,TRUE,25,1,1749.127,53,DON'T EAT                                    EAT,1748.1423,1734.0304,1649.0217,left,1,left,left,not_eat,not_eat,avoid,neg,avoid-neg,0,0,984.6999999999534
sub-053,27,2,FALSE,left,avoid,neg,fungus32_crop.jpg,1,3,TRUE,26,2,1751.0613,53,DON'T EAT                                    EAT,1750.1609,1734.0304,1649.0217,left,2,right,right,eat,eat,avoid,neg,avoid-neg,0,0,900.3999999999069
sub-053,28,2,FALSE,left,avoid,neg,fungus1_crop.jpg,1,3,TRUE,27,2,1752.9277,53,DON'T EAT                                    EAT,1752.1785,1734.0304,1649.0217,left,2,right,right,eat,eat,avoid,neg,avoid-neg,0,0,749.1999999999534
sub-053,29,2,FALSE,left,avoid,neg,fungus24_crop.jpg,1,3,TRUE,28,2,1754.9594,53,DON'T EAT                                    EAT,1754.1974,1734.0304,1649.0217,left,2,right,right,eat,eat,avoid,neg,avoid-neg,0,0,762
sub-053,30,2,FALSE,left,avoid,neg,fungus27_crop.jpg,1,3,TRUE,29,2,1756.8716,53,DON'T EAT                                    EAT,1756.2155,1734.0304,1649.0217,left,2,right,right,eat,eat,avoid,neg,avoid-neg,0,0,656.0999999998603
sub-053,31,1,FALSE,left,avoid,pos,meat21_crop.jpg,1,4,TRUE,30,2,1776.683,53,DON'T EAT                                    EAT,1775.5319,1771.5118,1649.0217,left,2,right,right,eat,eat,avoid,pos,avoid-pos,0,0,1151.1000000000931
sub-053,32,1,FALSE,left,avoid,pos,meat38_crop.jpg,1,4,TRUE,31,2,1778.1335,53,DON'T EAT                                    EAT,1777.55,1771.5118,1649.0217,left,2,right,right,eat,eat,avoid,pos,avoid-pos,0,0,583.5
sub-053,33,1,TRUE,left,approach,neg,insect20_crop.jpg,1,4,TRUE,32,1,1780.3291,53,DON'T EAT                                    EAT,1779.5684,1771.5118,1649.0217,left,1,left,left,not_eat,not_eat,avoid,pos,avoid-pos,0,0,760.6999999997206
sub-053,34,1,FALSE,left,avoid,pos,meat8_crop.jpg,1,4,TRUE,33,2,1782.3593,53,DON'T EAT                                    EAT,1781.5867,1771.5118,1649.0217,left,2,right,right,eat,eat,avoid,pos,avoid-pos,0,0,772.6000000000931
sub-053,35,1,FALSE,left,avoid,pos,meat2_crop.jpg,1,4,TRUE,34,2,1784.3138,53,DON'T EAT                                    EAT,1783.6052,1771.5118,1649.0217,left,2,right,right,eat,eat,avoid,pos,avoid-pos,0,0,708.5999999998603
sub-053,36,1,TRUE,left,approach,pos,cake29_crop.jpg,1,4,TRUE,35,1,1786.4504,53,DON'T EAT                                    EAT,1785.6235,1771.5118,1649.0217,left,1,left,left,not_eat,not_eat,avoid,pos,avoid-pos,0,0,826.8999999999069
sub-053,37,1,FALSE,left,avoid,pos,meat22_crop.jpg,1,4,TRUE,36,2,1788.3099,53,DON'T EAT                                    EAT,1787.6418,1771.5118,1649.0217,left,2,right,right,eat,eat,avoid,pos,avoid-pos,0,0,668.0999999998603
sub-053,38,1,FALSE,left,avoid,pos,meat9_crop.jpg,1,4,TRUE,37,2,1790.8501,53,DON'T EAT                                    EAT,1789.6602,1771.5118,1649.0217,left,2,right,right,eat,eat,avoid,pos,avoid-pos,0,0,1189.9000000001397
sub-053,39,1,FALSE,left,avoid,pos,meat11_crop.jpg,1,4,TRUE,38,2,1792.6517,53,DON'T EAT                                    EAT,1791.6783,1771.5118,1649.0217,left,2,right,right,eat,eat,avoid,pos,avoid-pos,0,0,973.3999999999069
sub-053,40,1,FALSE,left,avoid,pos,meat6_crop.jpg,1,4,TRUE,39,2,1794.3096,53,DON'T EAT                                    EAT,1793.697,1771.5118,1649.0217,left,2,right,right,eat,eat,avoid,pos,avoid-pos,0,0,612.6000000000931
sub-053,41,1,FALSE,left,avoid,neg,fungus17_crop.jpg,1,5,TRUE,40,2,1811.2609,53,DON'T EAT                                    EAT,1810.2106,1806.1906,1649.0217,left,2,right,right,eat,eat,avoid,neg,avoid-neg,0,0,1050.2999999998137
sub-053,42,1,FALSE,left,avoid,neg,fungus12_crop.jpg,1,5,TRUE,41,2,1812.8647,53,DON'T EAT                                    EAT,1812.2289,1806.1906,1649.0217,left,2,right,right,eat,eat,avoid,neg,avoid-neg,0,0,635.8000000000466
sub-053,43,1,TRUE,left,approach,pos,cake37_crop.jpg,1,5,TRUE,42,1,1815.1017,53,DON'T EAT                                    EAT,1814.2472,1806.1906,1649.0217,left,1,left,left,not_eat,not_eat,avoid,neg,avoid-neg,0,0,854.5
sub-053,44,1,FALSE,left,avoid,neg,fungus25_crop.jpg,1,5,TRUE,43,2,1816.9613,53,DON'T EAT                                    EAT,1816.2656,1806.1906,1649.0217,left,2,right,right,eat,eat,avoid,neg,avoid-neg,0,0,695.7000000001863
sub-053,45,1,FALSE,left,avoid,neg,fungus39_crop.jpg,1,5,TRUE,44,2,1819.1112,53,DON'T EAT                                    EAT,1818.284,1806.1906,1649.0217,left,2,right,right,eat,eat,avoid,neg,avoid-neg,0,0,827.1999999999534
sub-053,46,1,FALSE,left,avoid,neg,fungus37_crop.jpg,1,5,TRUE,45,2,1821.106,53,DON'T EAT                                    EAT,1820.3022,1806.1906,1649.0217,left,2,right,right,eat,eat,avoid,neg,avoid-neg,0,0,803.7999999998137
sub-053,47,1,FALSE,left,avoid,neg,fungus40_crop.jpg,1,5,TRUE,46,2,1823.0023,53,DON'T EAT                                    EAT,1822.3206,1806.1906,1649.0217,left,2,right,right,eat,eat,avoid,neg,avoid-neg,0,0,681.6999999999534
sub-053,48,1,FALSE,left,avoid,neg,fungus3_crop.jpg,1,5,TRUE,47,2,1825.023,53,DON'T EAT                                    EAT,1824.339,1806.1906,1649.0217,left,2,right,right,eat,eat,avoid,neg,avoid-neg,0,0,684
sub-053,49,1,FALSE,left,avoid,neg,fungus31_crop.jpg,1,5,TRUE,48,2,1826.8972,53,DON'T EAT                                    EAT,1826.3573,1806.1906,1649.0217,left,2,right,right,eat,eat,avoid,neg,avoid-neg,0,0,539.9000000003725
sub-053,50,1,TRUE,left,approach,neg,insect36_crop.jpg,1,5,TRUE,49,1,1829.3988,53,DON'T EAT                                    EAT,1828.3756,1806.1906,1649.0217,left,1,left,left,not_eat,not_eat,avoid,neg,avoid-neg,0,0,1023.1999999999534
sub-053,51,2,FALSE,right,avoid,neg,fungus35_crop.jpg,1,6,TRUE,50,2,1846.5673,53,DON'T EAT                                    EAT,1845.6901,1841.67,1649.0217,left,2,right,right,eat,eat,avoid,neg,avoid-neg,0,0,877.1999999999534
sub-053,52,2,FALSE,right,avoid,neg,fungus26_crop.jpg,1,6,TRUE,51,2,1848.2449,53,DON'T EAT                                    EAT,1847.7083,1841.67,1649.0217,left,2,right,right,eat,eat,avoid,neg,avoid-neg,0,0,536.5999999998603
sub-053,53,2,FALSE,right,avoid,neg,fungus18_crop.jpg,1,6,TRUE,52,2,1850.181,53,DON'T EAT                                    EAT,1849.7267,1841.67,1649.0217,left,2,right,right,eat,eat,avoid,neg,avoid-neg,0,0,454.30000000004657
sub-053,54,2,TRUE,right,approach,pos,cake11_crop.jpg,1,6,TRUE,53,1,1852.5918,53,DON'T EAT                                    EAT,1851.745,1841.67,1649.0217,left,1,left,left,not_eat,not_eat,avoid,neg,avoid-neg,0,0,846.7999999998137
sub-053,55,2,TRUE,right,approach,neg,insect26_crop.jpg,1,6,TRUE,54,1,1854.6311,53,DON'T EAT                                    EAT,1853.7635,1841.67,1649.0217,left,1,left,left,not_eat,not_eat,avoid,neg,avoid-neg,0,0,867.6000000000931
sub-053,56,2,FALSE,right,avoid,neg,fungus40_crop.jpg,1,6,TRUE,55,2,1856.5013,53,DON'T EAT                                    EAT,1855.7817,1841.67,1649.0217,left,2,right,right,eat,eat,avoid,neg,avoid-neg,0,0,719.5999999998603
sub-053,57,2,FALSE,right,avoid,neg,fungus6_crop.jpg,1,6,TRUE,56,2,1858.4275,53,DON'T EAT                                    EAT,1857.8,1841.67,1649.0217,left,2,right,right,eat,eat,avoid,neg,avoid-neg,0,0,627.5
sub-053,58,2,FALSE,right,avoid,neg,fungus33_crop.jpg,1,6,TRUE,57,2,1860.5597,53,DON'T EAT                                    EAT,1859.8184,1841.67,1649.0217,left,2,right,right,eat,eat,avoid,neg,avoid-neg,0,0,741.2999999998137
sub-053,59,2,FALSE,right,avoid,neg,fungus5_crop.jpg,1,6,TRUE,58,2,1862.6196,53,DON'T EAT                                    EAT,1861.8369,1841.67,1649.0217,left,2,right,right,eat,eat,avoid,neg,avoid-neg,0,0,782.7000000001863
sub-053,60,2,FALSE,right,avoid,neg,fungus37_crop.jpg,1,6,TRUE,59,2,1864.4451,53,DON'T EAT                                    EAT,1863.8549,1841.67,1649.0217,left,2,right,right,eat,eat,avoid,neg,avoid-neg,0,0,590.1999999997206
sub-053,61,0,FALSE,right,avoid,neg,fungus20_crop.jpg,1,7,TRUE,60,2,1880.9786,53,DON'T EAT                                    EAT,1880.0518,1876.032,1649.0217,left,2,right,right,eat,eat,avoid,neg,avoid-neg,0,0,926.7999999998137
sub-053,62,0,FALSE,right,avoid,neg,fungus11_crop.jpg,1,7,TRUE,61,2,1882.748,53,DON'T EAT                                    EAT,1882.0703,1876.032,1649.0217,left,2,right,right,eat,eat,avoid,neg,avoid-neg,0,0,677.6999999999534
sub-053,63,0,FALSE,right,avoid,neg,fungus3_crop.jpg,1,7,TRUE,62,2,1884.7574,53,DON'T EAT                                    EAT,1884.0886,1876.032,1649.0217,left,2,right,right,eat,eat,avoid,neg,avoid-neg,0,0,668.7999999998137
sub-053,64,0,FALSE,right,avoid,neg,fungus2_crop.jpg,1,7,TRUE,63,2,1886.7302,53,DON'T EAT                                    EAT,1886.107,1876.032,1649.0217,left,2,right,right,eat,eat,avoid,neg,avoid-neg,0,0,623.1999999999534
sub-053,65,0,FALSE,right,avoid,neg,fungus29_crop.jpg,1,7,TRUE,64,2,1888.7172,53,DON'T EAT                                    EAT,1888.1252,1876.032,1649.0217,left,2,right,right,eat,eat,avoid,neg,avoid-neg,0,0,592
sub-053,66,0,TRUE,right,approach,pos,cake12_crop.jpg,1,7,TRUE,65,1,1891.0615,53,DON'T EAT                                    EAT,1890.1438,1876.032,1649.0217,left,1,left,left,not_eat,not_eat,avoid,neg,avoid-neg,0,0,917.6999999999534
sub-053,67,0,FALSE,right,avoid,neg,fungus10_crop.jpg,1,7,TRUE,66,2,1892.8575,53,DON'T EAT                                    EAT,1892.1619,1876.032,1649.0217,left,2,right,right,eat,eat,avoid,neg,avoid-neg,0,0,695.5999999998603
sub-053,68,0,FALSE,right,avoid,neg,fungus39_crop.jpg,1,7,TRUE,67,2,1894.8779,53,DON'T EAT                                    EAT,1894.1803,1876.032,1649.0217,left,2,right,right,eat,eat,avoid,neg,avoid-neg,0,0,697.5999999998603
sub-053,69,0,FALSE,right,avoid,neg,fungus15_crop.jpg,1,7,TRUE,68,2,1896.8754,53,DON'T EAT                                    EAT,1896.1986,1876.032,1649.0217,left,2,right,right,eat,eat,avoid,neg,avoid-neg,0,0,676.8000000000466
sub-053,70,0,TRUE,right,approach,neg,insect10_crop.jpg,1,7,TRUE,69,1,1898.9172,53,DON'T EAT                                    EAT,1898.2169,1876.032,1649.0217,left,1,left,left,not_eat,not_eat,avoid,neg,avoid-neg,0,0,700.3000000002794
sub-053,71,1,FALSE,right,avoid,pos,meat17_crop.jpg,1,8,TRUE,70,2,1918.9353,53,DON'T EAT                                    EAT,1917.8335,1913.8132,1649.0217,left,2,right,right,eat,eat,avoid,pos,avoid-pos,0,0,1101.8000000000466
sub-053,72,1,FALSE,right,avoid,pos,meat23_crop.jpg,1,8,TRUE,71,2,1920.4475,53,DON'T EAT                                    EAT,1919.8514,1913.8132,1649.0217,left,2,right,right,eat,eat,avoid,pos,avoid-pos,0,0,596.1000000000931
sub-053,73,1,FALSE,right,avoid,pos,meat8_crop.jpg,1,8,TRUE,72,2,1922.3977,53,DON'T EAT                                    EAT,1921.87,1913.8132,1649.0217,left,2,right,right,eat,eat,avoid,pos,avoid-pos,0,0,527.6999999999534
sub-053,74,1,FALSE,right,avoid,pos,meat1_crop.jpg,1,8,TRUE,73,2,1924.4918,53,DON'T EAT                                    EAT,1923.8883,1913.8132,1649.0217,left,2,right,right,eat,eat,avoid,pos,avoid-pos,0,0,603.5
sub-053,75,1,FALSE,right,avoid,pos,meat40_crop.jpg,1,8,TRUE,74,2,1926.6893,53,DON'T EAT                                    EAT,1925.9066,1913.8132,1649.0217,left,2,right,right,eat,eat,avoid,pos,avoid-pos,0,0,782.6999999999534
sub-053,76,1,FALSE,right,avoid,pos,meat3_crop.jpg,1,8,TRUE,75,2,1928.5378,53,DON'T EAT                                    EAT,1927.925,1913.8132,1649.0217,left,2,right,right,eat,eat,avoid,pos,avoid-pos,0,0,612.8000000000466
sub-053,77,1,TRUE,right,approach,neg,insect25_crop.jpg,1,8,TRUE,76,1,1930.7134,53,DON'T EAT                                    EAT,1929.9435,1913.8132,1649.0217,left,1,left,left,not_eat,not_eat,avoid,pos,avoid-pos,0,0,769.9000000001397
sub-053,78,1,TRUE,right,approach,pos,cake35_crop.jpg,1,8,TRUE,77,1,1933.3761,53,DON'T EAT                                    EAT,1931.9618,1913.8132,1649.0217,left,1,left,left,not_eat,not_eat,avoid,pos,avoid-pos,0,0,1414.2999999998137
sub-053,79,1,FALSE,right,avoid,pos,meat31_crop.jpg,1,8,TRUE,78,2,1934.9231,53,DON'T EAT                                    EAT,1933.9801,1913.8132,1649.0217,left,2,right,right,eat,eat,avoid,pos,avoid-pos,0,0,943
sub-053,80,1,FALSE,right,avoid,pos,meat32_crop.jpg,1,8,TRUE,79,2,1936.5573,53,DON'T EAT                                    EAT,1935.9983,1913.8132,1649.0217,left,2,right,right,eat,eat,avoid,pos,avoid-pos,0,0,559
sub-053,81,1,FALSE,right,avoid,neg,fungus4_crop.jpg,2,9,TRUE,80,1,2124.5068,53,DON'T EAT                                    EAT,2122.9702,2118.95,2107.128,right,1,left,left,not_eat,not_eat,avoid,neg,avoid-neg,1,1,1536.6000000000931
sub-053,82,1,FALSE,right,avoid,neg,fungus22_crop.jpg,2,9,TRUE,81,1,2125.794,53,DON'T EAT                                    EAT,2124.9885,2118.95,2107.128,right,1,left,left,not_eat,not_eat,avoid,neg,avoid-neg,1,1,805.5
sub-053,83,1,FALSE,right,avoid,neg,fungus14_crop.jpg,2,9,TRUE,82,1,2127.5244,53,DON'T EAT                                    EAT,2127.0066,2118.95,2107.128,right,1,left,left,not_eat,not_eat,avoid,neg,avoid-neg,1,1,517.7999999998137
sub-053,84,1,FALSE,right,avoid,neg,fungus13_crop.jpg,2,9,TRUE,83,1,2129.4475,53,DON'T EAT                                    EAT,2129.0254,2118.95,2107.128,right,1,left,left,not_eat,not_eat,avoid,neg,avoid-neg,1,1,422.10000000009313
sub-053,85,1,FALSE,right,avoid,neg,fungus7_crop.jpg,2,9,TRUE,84,1,2131.4812,53,DON'T EAT                                    EAT,2131.044,2118.95,2107.128,right,1,left,left,not_eat,not_eat,avoid,neg,avoid-neg,1,1,437.20000000018626
sub-053,86,1,FALSE,right,avoid,neg,fungus30_crop.jpg,2,9,TRUE,85,1,2133.4978,53,DON'T EAT                                    EAT,2133.062,2118.95,2107.128,right,1,left,left,not_eat,not_eat,avoid,neg,avoid-neg,1,1,435.8000000002794
sub-053,87,1,FALSE,right,avoid,neg,fungus25_crop.jpg,2,9,TRUE,86,1,2135.5566,53,DON'T EAT                                    EAT,2135.0803,2118.95,2107.128,right,1,left,left,not_eat,not_eat,avoid,neg,avoid-neg,1,1,476.29999999981374
sub-053,88,1,TRUE,right,approach,pos,cake26_crop.jpg,2,9,TRUE,87,2,2137.8904000000002,53,DON'T EAT                                    EAT,2137.0986,2118.95,2107.128,right,2,right,right,eat,eat,avoid,neg,avoid-neg,1,1,791.8000000007451
sub-053,89,1,FALSE,right,avoid,neg,fungus24_crop.jpg,2,9,TRUE,88,1,2139.8052,53,DON'T EAT                                    EAT,2139.117,2118.95,2107.128,right,1,left,left,not_eat,not_eat,avoid,neg,avoid-neg,1,1,688.1999999997206
sub-053,90,1,TRUE,right,approach,neg,insect13_crop.jpg,2,9,TRUE,89,2,2141.8408,53,DON'T EAT                                    EAT,2141.1355,2118.95,2107.128,right,2,right,right,eat,eat,avoid,neg,avoid-neg,1,1,705.2999999998137
sub-053,91,2,FALSE,left,approach,pos,cake18_crop.jpg,2,10,TRUE,90,2,2159.1606,53,DON'T EAT                                    EAT,2158.1328,2154.113,2107.128,right,2,right,right,eat,eat,approach,pos,approach-pos,1,1,1027.8000000002794
sub-053,92,2,FALSE,left,approach,pos,cake26_crop.jpg,2,10,TRUE,91,2,2160.7761,53,DON'T EAT                                    EAT,2160.1514,2154.113,2107.128,right,2,right,right,eat,eat,approach,pos,approach-pos,1,1,624.6999999997206
sub-053,93,2,FALSE,left,approach,pos,cake36_crop.jpg,2,10,TRUE,92,2,2162.6794,53,DON'T EAT                                    EAT,2162.1704,2154.113,2107.128,right,2,right,right,eat,eat,approach,pos,approach-pos,1,1,509
sub-053,94,2,FALSE,left,approach,pos,cake14_crop.jpg,2,10,TRUE,93,2,2164.748,53,DON'T EAT                                    EAT,2164.1877,2154.113,2107.128,right,2,right,right,eat,eat,approach,pos,approach-pos,1,1,560.3000000002794
sub-053,95,2,FALSE,left,approach,pos,cake28_crop.jpg,2,10,TRUE,94,2,2166.7686,53,DON'T EAT                                    EAT,2166.2063,2154.113,2107.128,right,2,right,right,eat,eat,approach,pos,approach-pos,1,1,562.3000000002794
sub-053,96,2,TRUE,left,avoid,pos,meat31_crop.jpg,2,10,TRUE,95,1,2169.269,53,DON'T EAT                                    EAT,2168.2244,2154.113,2107.128,right,1,left,left,not_eat,not_eat,approach,pos,approach-pos,1,1,1044.6000000000931
sub-053,97,2,FALSE,left,approach,pos,cake12_crop.jpg,2,10,TRUE,96,2,2170.8997,53,DON'T EAT                                    EAT,2170.243,2154.113,2107.128,right,2,right,right,eat,eat,approach,pos,approach-pos,1,1,656.6999999997206
sub-053,98,2,FALSE,left,approach,pos,cake9_crop.jpg,2,10,TRUE,97,2,2174.2102,53,DON'T EAT                                    EAT,2172.2612,2154.113,2107.128,right,2,right,right,eat,eat,approach,pos,approach-pos,1,1,1949.0000000004657
sub-053,99,2,FALSE,left,approach,pos,cake8_crop.jpg,2,10,TRUE,98,2,2175.1802,53,DON'T EAT                                    EAT,2174.2795,2154.113,2107.128,right,2,right,right,eat,eat,approach,pos,approach-pos,1,1,900.6999999997206
sub-053,100,2,TRUE,left,avoid,neg,fungus11_crop.jpg,2,10,TRUE,99,1,2177.408,53,DON'T EAT                                    EAT,2176.2979,2154.113,2107.128,right,1,left,left,not_eat,not_eat,approach,pos,approach-pos,1,1,1110.1000000000931
sub-053,101,0,FALSE,left,approach,pos,cake4_crop.jpg,2,11,TRUE,100,2,2195.23,53,DON'T EAT                                    EAT,2193.9292,2189.9094,2107.128,right,2,right,right,eat,eat,approach,pos,approach-pos,1,1,1300.7999999998137
sub-053,102,0,FALSE,left,approach,pos,cake32_crop.jpg,2,11,TRUE,101,2,2196.5398,53,DON'T EAT                                    EAT,2195.9478,2189.9094,2107.128,right,2,right,right,eat,eat,approach,pos,approach-pos,1,1,592
sub-053,103,0,FALSE,left,approach,pos,cake30_crop.jpg,2,11,TRUE,102,2,2198.6196,53,DON'T EAT                                    EAT,2197.966,2189.9094,2107.128,right,2,right,right,eat,eat,approach,pos,approach-pos,1,1,653.6000000000931
sub-053,104,0,FALSE,left,approach,pos,cake38_crop.jpg,2,11,TRUE,103,2,2200.5444,53,DON'T EAT                                    EAT,2199.9844,2189.9094,2107.128,right,2,right,right,eat,eat,approach,pos,approach-pos,1,1,560.0000000004657
sub-053,105,0,FALSE,left,approach,pos,cake1_crop.jpg,2,11,TRUE,104,2,2202.574,53,DON'T EAT                                    EAT,2202.0027,2189.9094,2107.128,right,2,right,right,eat,eat,approach,pos,approach-pos,1,1,571.2999999998137
sub-053,106,0,TRUE,left,avoid,neg,fungus15_crop.jpg,2,11,TRUE,105,1,2204.7534,53,DON'T EAT                                    EAT,2204.021,2189.9094,2107.128,right,1,left,left,not_eat,not_eat,approach,pos,approach-pos,1,1,732.3999999999069
sub-053,107,0,FALSE,left,approach,pos,cake34_crop.jpg,2,11,TRUE,106,2,2206.987,53,DON'T EAT                                    EAT,2206.0388,2189.9094,2107.128,right,2,right,right,eat,eat,approach,pos,approach-pos,1,1,948.2000000001863
sub-053,108,0,FALSE,left,approach,pos,cake23_crop.jpg,2,11,TRUE,107,2,2208.7332,53,DON'T EAT                                    EAT,2208.0576,2189.9094,2107.128,right,2,right,right,eat,eat,approach,pos,approach-pos,1,1,675.6000000000931
sub-053,109,0,FALSE,left,approach,pos,cake13_crop.jpg,2,11,TRUE,108,2,2210.6997,53,DON'T EAT                                    EAT,2210.0762,2189.9094,2107.128,right,2,right,right,eat,eat,approach,pos,approach-pos,1,1,623.5
sub-053,110,0,TRUE,left,avoid,pos,meat1_crop.jpg,2,11,TRUE,109,1,2213.3616,53,DON'T EAT                                    EAT,2212.0942,2189.9094,2107.128,right,1,left,left,not_eat,not_eat,approach,pos,approach-pos,1,1,1267.3999999999069
sub-053,111,3,TRUE,left,avoid,pos,meat40_crop.jpg,2,12,TRUE,110,1,2229.5625,53,DON'T EAT                                    EAT,2228.4407,2224.4375,2107.128,right,1,left,left,not_eat,not_eat,approach,neg,approach-neg,1,1,1121.7999999998137
sub-053,112,3,FALSE,left,approach,neg,insect7_crop.jpg,2,12,TRUE,111,2,2231.3928,53,DON'T EAT                                    EAT,2230.4597,2224.4375,2107.128,right,2,right,right,eat,eat,approach,neg,approach-neg,1,1,933.1000000005588
sub-053,113,3,FALSE,left,approach,neg,insect16_crop.jpg,2,12,TRUE,112,2,2233.2373,53,DON'T EAT                                    EAT,2232.4778,2224.4375,2107.128,right,2,right,right,eat,eat,approach,neg,approach-neg,1,1,759.4999999995343
sub-053,114,3,FALSE,left,approach,neg,insect21_crop.jpg,2,12,TRUE,113,2,2235.0012,53,DON'T EAT                                    EAT,2234.4963,2224.4375,2107.128,right,2,right,right,eat,eat,approach,neg,approach-neg,1,1,504.90000000037253
sub-053,115,3,FALSE,left,approach,neg,insect37_crop.jpg,2,12,TRUE,114,2,2237.129,53,DON'T EAT                                    EAT,2236.5151,2224.4375,2107.128,right,2,right,right,eat,eat,approach,neg,approach-neg,1,1,613.8999999999069
sub-053,116,3,FALSE,left,approach,neg,insect39_crop.jpg,2,12,TRUE,115,2,2239.2314,53,DON'T EAT                                    EAT,2238.533,2224.4375,2107.128,right,2,right,right,eat,eat,approach,neg,approach-neg,1,1,698.3999999999069
sub-053,117,3,FALSE,left,approach,neg,insect28_crop.jpg,2,12,TRUE,116,2,2241.1235,53,DON'T EAT                                    EAT,2240.551,2224.4375,2107.128,right,2,right,right,eat,eat,approach,neg,approach-neg,1,1,572.5
sub-053,118,3,FALSE,left,approach,neg,insect3_crop.jpg,2,12,TRUE,117,2,2243.1965,53,DON'T EAT                                    EAT,2242.5696,2224.4375,2107.128,right,2,right,right,eat,eat,approach,neg,approach-neg,1,1,626.9000000003725
sub-053,119,3,TRUE,left,avoid,neg,fungus26_crop.jpg,2,12,TRUE,118,1,2245.3704,53,DON'T EAT                                    EAT,2244.5876,2224.4375,2107.128,right,1,left,left,not_eat,not_eat,approach,neg,approach-neg,1,1,782.8000000002794
sub-053,120,3,FALSE,left,approach,neg,insect4_crop.jpg,2,12,TRUE,119,2,2247.389,53,DON'T EAT                                    EAT,2246.6064,2224.4375,2107.128,right,2,right,right,eat,eat,approach,neg,approach-neg,1,1,782.6000000000931
sub-053,121,2,FALSE,left,approach,neg,insect40_crop.jpg,2,13,TRUE,120,2,2263.7207,53,DON'T EAT                                    EAT,2262.8865,2258.8662,2107.128,right,2,right,right,eat,eat,approach,neg,approach-neg,1,1,834.1999999997206
sub-053,122,2,FALSE,left,approach,neg,insect14_crop.jpg,2,13,TRUE,121,2,2265.4646,53,DON'T EAT                                    EAT,2264.905,2258.8662,2107.128,right,2,right,right,eat,eat,approach,neg,approach-neg,1,1,559.5999999996275
sub-053,123,2,FALSE,left,approach,neg,insect1_crop.jpg,2,13,TRUE,122,2,2267.3896,53,DON'T EAT                                    EAT,2266.9233,2258.8662,2107.128,right,2,right,right,eat,eat,approach,neg,approach-neg,1,1,466.3000000002794
sub-053,124,2,FALSE,left,approach,neg,insect30_crop.jpg,2,13,TRUE,123,2,2269.3923,53,DON'T EAT                                    EAT,2268.9417,2258.8662,2107.128,right,2,right,right,eat,eat,approach,neg,approach-neg,1,1,450.60000000009313
sub-053,125,2,FALSE,left,approach,neg,insect27_crop.jpg,2,13,TRUE,124,2,2271.5005,53,DON'T EAT                                    EAT,2270.96,2258.8662,2107.128,right,2,right,right,eat,eat,approach,neg,approach-neg,1,1,540.5
sub-053,126,2,FALSE,left,approach,neg,insect9_crop.jpg,2,13,TRUE,125,2,2273.5488,53,DON'T EAT                                    EAT,2272.978,2258.8662,2107.128,right,2,right,right,eat,eat,approach,neg,approach-neg,1,1,570.7999999998137
sub-053,127,2,FALSE,left,approach,neg,insect17_crop.jpg,2,13,TRUE,126,2,2275.5266,53,DON'T EAT                                    EAT,2274.9966,2258.8662,2107.128,right,2,right,right,eat,eat,approach,neg,approach-neg,1,1,530
sub-053,128,2,TRUE,left,avoid,neg,fungus16_crop.jpg,2,13,TRUE,127,1,2277.6816,53,DON'T EAT                                    EAT,2277.015,2258.8662,2107.128,right,1,left,left,not_eat,not_eat,approach,neg,approach-neg,1,1,666.6000000000931
sub-053,129,2,FALSE,left,approach,neg,insect11_crop.jpg,2,13,TRUE,128,2,2279.5325,53,DON'T EAT                                    EAT,2279.0334,2258.8662,2107.128,right,2,right,right,eat,eat,approach,neg,approach-neg,1,1,499.10000000009313
sub-053,130,2,TRUE,left,avoid,pos,meat32_crop.jpg,2,13,TRUE,129,1,2281.9138,53,DON'T EAT                                    EAT,2281.0513,2258.8662,2107.128,right,1,left,left,not_eat,not_eat,approach,neg,approach-neg,1,1,862.4999999995343
sub-053,131,3,FALSE,right,avoid,pos,meat19_crop.jpg,2,14,TRUE,130,1,2300.0852,53,DON'T EAT                                    EAT,2298.9,2294.88,2107.128,right,1,left,left,not_eat,not_eat,avoid,pos,avoid-pos,1,1,1185.2000000001863
sub-053,132,3,FALSE,right,avoid,pos,meat6_crop.jpg,2,14,TRUE,131,1,2301.8582,53,DON'T EAT                                    EAT,2300.918,2294.88,2107.128,right,1,left,left,not_eat,not_eat,avoid,pos,avoid-pos,1,1,940.2000000001863
sub-053,133,3,FALSE,right,avoid,pos,meat20_crop.jpg,2,14,TRUE,132,1,2303.4546,53,DON'T EAT                                    EAT,2302.9365,2294.88,2107.128,right,1,left,left,not_eat,not_eat,avoid,pos,avoid-pos,1,1,518.1000000000931
sub-053,134,3,TRUE,right,approach,pos,cake22_crop.jpg,2,14,TRUE,133,2,2305.6614,53,DON'T EAT                                    EAT,2304.9548,2294.88,2107.128,right,2,right,right,eat,eat,avoid,pos,avoid-pos,1,1,706.6000000000931
sub-053,135,3,FALSE,right,avoid,pos,meat16_crop.jpg,2,14,TRUE,134,1,2307.7434,53,DON'T EAT                                    EAT,2306.9731,2294.88,2107.128,right,1,left,left,not_eat,not_eat,avoid,pos,avoid-pos,1,1,770.2999999998137
sub-053,136,3,FALSE,right,avoid,pos,meat11_crop.jpg,2,14,TRUE,135,1,2309.7437,53,DON'T EAT                                    EAT,2308.9917,2294.88,2107.128,right,1,left,left,not_eat,not_eat,avoid,pos,avoid-pos,1,1,752
sub-053,137,3,FALSE,right,avoid,pos,meat25_crop.jpg,2,14,TRUE,136,1,2311.8533,53,DON'T EAT                                    EAT,2311.0098,2294.88,2107.128,right,1,left,left,not_eat,not_eat,avoid,pos,avoid-pos,1,1,843.5000000004657
sub-053,138,3,TRUE,right,approach,neg,insect3_crop.jpg,2,14,TRUE,137,2,2313.7776,53,DON'T EAT                                    EAT,2313.0283,2294.88,2107.128,right,2,right,right,eat,eat,avoid,pos,avoid-pos,1,1,749.3000000002794
sub-053,139,3,FALSE,right,avoid,pos,meat10_crop.jpg,2,14,TRUE,138,1,2315.7114,53,DON'T EAT                                    EAT,2315.0464,2294.88,2107.128,right,1,left,left,not_eat,not_eat,avoid,pos,avoid-pos,1,1,665
sub-053,140,3,FALSE,right,avoid,pos,meat2_crop.jpg,2,14,TRUE,139,1,2317.952,53,DON'T EAT                                    EAT,2317.065,2294.88,2107.128,right,1,left,left,not_eat,not_eat,avoid,pos,avoid-pos,1,1,887
sub-053,141,0,FALSE,right,approach,neg,insect7_crop.jpg,2,15,TRUE,140,2,2334.659,53,DON'T EAT                                    EAT,2333.9624,2329.9424,2107.128,right,2,right,right,eat,eat,approach,neg,approach-neg,1,1,696.6000000000931
sub-053,142,0,FALSE,right,approach,neg,insect15_crop.jpg,2,15,TRUE,141,2,2336.4797,53,DON'T EAT                                    EAT,2335.9802,2329.9424,2107.128,right,2,right,right,eat,eat,approach,neg,approach-neg,1,1,499.49999999953434
sub-053,143,0,FALSE,right,approach,neg,insect17_crop.jpg,2,15,TRUE,142,2,2338.5164,53,DON'T EAT                                    EAT,2337.999,2329.9424,2107.128,right,2,right,right,eat,eat,approach,neg,approach-neg,1,1,517.3999999999069
sub-053,144,0,FALSE,right,approach,neg,insect23_crop.jpg,2,15,TRUE,143,2,2340.4194,53,DON'T EAT                                    EAT,2340.0176,2329.9424,2107.128,right,2,right,right,eat,eat,approach,neg,approach-neg,1,1,401.8000000002794
sub-053,145,0,TRUE,right,avoid,neg,fungus1_crop.jpg,2,15,TRUE,144,1,2342.6501,53,DON'T EAT                                    EAT,2342.0356,2329.9424,2107.128,right,1,left,left,not_eat,not_eat,approach,neg,approach-neg,1,1,614.4999999995343
sub-053,146,0,TRUE,right,avoid,pos,meat26_crop.jpg,2,15,TRUE,145,1,2345.476,53,DON'T EAT                                    EAT,2344.0542,2329.9424,2107.128,right,1,left,left,not_eat,not_eat,approach,neg,approach-neg,1,1,1421.7999999998137
sub-053,147,0,FALSE,right,approach,neg,insect21_crop.jpg,2,15,TRUE,146,2,2346.8018,53,DON'T EAT                                    EAT,2346.0725,2329.9424,2107.128,right,2,right,right,eat,eat,approach,neg,approach-neg,1,1,729.3000000002794
sub-053,148,0,FALSE,right,approach,neg,insect30_crop.jpg,2,15,TRUE,147,2,2348.6848,53,DON'T EAT                                    EAT,2348.0906,2329.9424,2107.128,right,2,right,right,eat,eat,approach,neg,approach-neg,1,1,594.1999999997206
sub-053,149,0,FALSE,right,approach,neg,insect16_crop.jpg,2,15,TRUE,148,2,2350.6895,53,DON'T EAT                                    EAT,2350.109,2329.9424,2107.128,right,2,right,right,eat,eat,approach,neg,approach-neg,1,1,580.5
sub-053,150,0,FALSE,right,approach,neg,insect22_crop.jpg,2,15,TRUE,149,2,2352.7832,53,DON'T EAT                                    EAT,2352.1272,2329.9424,2107.128,right,2,right,right,eat,eat,approach,neg,approach-neg,1,1,656
sub-053,151,3,FALSE,right,approach,pos,cake33_crop.jpg,2,16,TRUE,150,2,2369.895,53,DON'T EAT                                    EAT,2368.8247,2364.8042,2107.128,right,2,right,right,eat,eat,approach,pos,approach-pos,1,1,1070.2999999998137
sub-053,152,3,FALSE,right,approach,pos,cake39_crop.jpg,2,16,TRUE,151,2,2371.4553,53,DON'T EAT                                    EAT,2370.843,2364.8042,2107.128,right,2,right,right,eat,eat,approach,pos,approach-pos,1,1,612.3000000002794
sub-053,153,3,FALSE,right,approach,pos,cake23_crop.jpg,2,16,TRUE,152,2,2373.4866,53,DON'T EAT                                    EAT,2372.8613,2364.8042,2107.128,right,2,right,right,eat,eat,approach,pos,approach-pos,1,1,625.3000000002794
sub-053,154,3,FALSE,right,approach,pos,cake5_crop.jpg,2,16,TRUE,153,2,2375.418,53,DON'T EAT                                    EAT,2374.8796,2364.8042,2107.128,right,2,right,right,eat,eat,approach,pos,approach-pos,1,1,538.3999999999069
sub-053,155,3,FALSE,right,approach,pos,cake21_crop.jpg,2,16,TRUE,154,2,2377.4783,53,DON'T EAT                                    EAT,2376.8977,2364.8042,2107.128,right,2,right,right,eat,eat,approach,pos,approach-pos,1,1,580.6000000000931
sub-053,156,3,FALSE,right,approach,pos,cake7_crop.jpg,2,16,TRUE,155,2,2379.444,53,DON'T EAT                                    EAT,2378.9163,2364.8042,2107.128,right,2,right,right,eat,eat,approach,pos,approach-pos,1,1,527.7000000001863
sub-053,157,3,FALSE,right,approach,pos,cake17_crop.jpg,2,16,TRUE,156,2,2381.464,53,DON'T EAT                                    EAT,2380.9343,2364.8042,2107.128,right,2,right,right,eat,eat,approach,pos,approach-pos,1,1,529.7000000001863
sub-053,158,3,TRUE,right,avoid,neg,fungus31_crop.jpg,2,16,TRUE,157,1,2383.8118,53,DON'T EAT                                    EAT,2382.953,2364.8042,2107.128,right,1,left,left,not_eat,not_eat,approach,pos,approach-pos,1,1,858.7999999998137
sub-053,159,3,TRUE,right,avoid,pos,meat33_crop.jpg,2,16,TRUE,158,2,2385.7324,53,DON'T EAT                                    EAT,2384.9712,2364.8042,2107.128,right,2,right,right,eat,eat,approach,pos,approach-pos,0,0,761.1999999997206
sub-053,160,3,FALSE,right,approach,pos,cake27_crop.jpg,2,16,TRUE,159,2,2388.473,53,DON'T EAT                                    EAT,2386.9897,2364.8042,2107.128,right,2,right,right,eat,eat,approach,pos,approach-pos,1,1,1483.2999999998137
sub-053,161,3,TRUE,left,approach,neg,insect29_crop.jpg,3,17,TRUE,160,2,2496.0645,53,DON'T EAT                                    EAT,2494.9126,2490.8926,2478.726,left,2,right,right,eat,eat,avoid,neg,avoid-neg,1,1,1151.8999999999069
sub-053,162,3,FALSE,left,avoid,neg,fungus33_crop.jpg,3,17,TRUE,161,1,2497.7231,53,DON'T EAT                                    EAT,2496.931,2490.8926,2478.726,left,1,left,left,not_eat,not_eat,avoid,neg,avoid-neg,1,1,792.1000000000931
sub-053,163,3,FALSE,left,avoid,neg,fungus18_crop.jpg,3,17,TRUE,162,1,2499.871,53,DON'T EAT                                    EAT,2498.9492,2490.8926,2478.726,left,1,left,left,not_eat,not_eat,avoid,neg,avoid-neg,1,1,921.7999999998137
sub-053,164,3,TRUE,left,approach,pos,cake24_crop.jpg,3,17,TRUE,163,2,2502.34,53,DON'T EAT                                    EAT,2500.9675,2490.8926,2478.726,left,2,right,right,eat,eat,avoid,neg,avoid-neg,1,1,1372.5
sub-053,165,3,FALSE,left,avoid,neg,fungus36_crop.jpg,3,17,TRUE,164,1,2503.7888,53,DON'T EAT                                    EAT,2502.9858,2490.8926,2478.726,left,1,left,left,not_eat,not_eat,avoid,neg,avoid-neg,1,1,803
sub-053,166,3,FALSE,left,avoid,neg,fungus6_crop.jpg,3,17,TRUE,165,1,2505.758,53,DON'T EAT                                    EAT,2505.0042,2490.8926,2478.726,left,1,left,left,not_eat,not_eat,avoid,neg,avoid-neg,1,1,753.8000000002794
sub-053,167,3,FALSE,left,avoid,neg,fungus23_crop.jpg,3,17,TRUE,166,1,2507.7336,53,DON'T EAT                                    EAT,2507.0227,2490.8926,2478.726,left,1,left,left,not_eat,not_eat,avoid,neg,avoid-neg,1,1,710.8999999999069
sub-053,168,3,FALSE,left,avoid,neg,fungus34_crop.jpg,3,17,TRUE,167,1,2509.668,53,DON'T EAT                                    EAT,2509.041,2490.8926,2478.726,left,1,left,left,not_eat,not_eat,avoid,neg,avoid-neg,1,1,627
sub-053,169,3,FALSE,left,avoid,neg,fungus4_crop.jpg,3,17,TRUE,168,1,2511.935,53,DON'T EAT                                    EAT,2511.0593,2490.8926,2478.726,left,1,left,left,not_eat,not_eat,avoid,neg,avoid-neg,1,1,875.7000000001863
sub-053,170,3,FALSE,left,avoid,neg,fungus7_crop.jpg,3,17,TRUE,169,1,2513.7012,53,DON'T EAT                                    EAT,2513.0776,2490.8926,2478.726,left,1,left,left,not_eat,not_eat,avoid,neg,avoid-neg,1,1,623.6000000000931
sub-053,171,0,FALSE,right,avoid,pos,meat21_crop.jpg,3,18,TRUE,170,1,2532.9324,53,DON'T EAT                                    EAT,2531.5598,2527.5393,2478.726,left,1,left,left,not_eat,not_eat,avoid,pos,avoid-pos,1,1,1372.6000000005588
sub-053,172,0,FALSE,right,avoid,pos,meat4_crop.jpg,3,18,TRUE,171,1,2534.4778,53,DON'T EAT                                    EAT,2533.578,2527.5393,2478.726,left,1,left,left,not_eat,not_eat,avoid,pos,avoid-pos,1,1,899.8000000002794
sub-053,173,0,FALSE,right,avoid,pos,meat24_crop.jpg,3,18,TRUE,172,1,2536.1455,53,DON'T EAT                                    EAT,2535.5964,2527.5393,2478.726,left,1,left,left,not_eat,not_eat,avoid,pos,avoid-pos,1,1,549.1000000000931
sub-053,174,0,FALSE,right,avoid,pos,meat34_crop.jpg,3,18,TRUE,173,1,2538.365,53,DON'T EAT                                    EAT,2537.6145,2527.5393,2478.726,left,1,left,left,not_eat,not_eat,avoid,pos,avoid-pos,1,1,750.5
sub-053,175,0,TRUE,right,approach,pos,cake14_crop.jpg,3,18,TRUE,174,2,2540.515,53,DON'T EAT                                    EAT,2539.633,2527.5393,2478.726,left,2,right,right,eat,eat,avoid,pos,avoid-pos,1,1,882
sub-053,176,0,FALSE,right,avoid,pos,meat29_crop.jpg,3,18,TRUE,175,1,2542.3242,53,DON'T EAT                                    EAT,2541.6514,2527.5393,2478.726,left,1,left,left,not_eat,not_eat,avoid,pos,avoid-pos,1,1,672.7999999998137
sub-053,177,0,FALSE,right,avoid,pos,meat38_crop.jpg,3,18,TRUE,176,1,2544.3027,53,DON'T EAT                                    EAT,2543.6697,2527.5393,2478.726,left,1,left,left,not_eat,not_eat,avoid,pos,avoid-pos,1,1,633.0000000004657
sub-053,178,0,TRUE,right,approach,neg,insect20_crop.jpg,3,18,TRUE,177,2,2546.4678,53,DON'T EAT                                    EAT,2545.688,2527.5393,2478.726,left,2,right,right,eat,eat,avoid,pos,avoid-pos,1,1,779.7999999998137
sub-053,179,0,FALSE,right,avoid,pos,meat12_crop.jpg,3,18,TRUE,178,1,2548.3604,53,DON'T EAT                                    EAT,2547.7065,2527.5393,2478.726,left,1,left,left,not_eat,not_eat,avoid,pos,avoid-pos,1,1,653.8999999999069
sub-053,180,0,FALSE,right,avoid,pos,meat7_crop.jpg,3,18,TRUE,179,1,2550.3047,53,DON'T EAT                                    EAT,2549.7249,2527.5393,2478.726,left,1,left,left,not_eat,not_eat,avoid,pos,avoid-pos,1,1,579.7999999998137
sub-053,181,0,FALSE,right,approach,pos,cake19_crop.jpg,3,19,TRUE,180,2,2569.7205,53,DON'T EAT                                    EAT,2568.9067,2564.8875,2478.726,left,2,right,right,eat,eat,approach,pos,approach-pos,1,1,813.7999999998137
sub-053,182,0,FALSE,right,approach,pos,cake2_crop.jpg,3,19,TRUE,181,2,2571.5066,53,DON'T EAT                                    EAT,2570.9255,2564.8875,2478.726,left,2,right,right,eat,eat,approach,pos,approach-pos,1,1,581.1000000000931
sub-053,183,0,FALSE,right,approach,pos,cake38_crop.jpg,3,19,TRUE,182,2,2573.3909,53,DON'T EAT                                    EAT,2572.944,2564.8875,2478.726,left,2,right,right,eat,eat,approach,pos,approach-pos,1,1,446.89999999990687
sub-053,184,0,FALSE,right,approach,pos,cake9_crop.jpg,3,19,TRUE,183,2,2575.427,53,DON'T EAT                                    EAT,2574.9624,2564.8875,2478.726,left,2,right,right,eat,eat,approach,pos,approach-pos,1,1,464.60000000009313
sub-053,185,0,TRUE,right,avoid,neg,fungus8_crop.jpg,3,19,TRUE,184,1,2577.7046,53,DON'T EAT                                    EAT,2576.9807,2564.8875,2478.726,left,1,left,left,not_eat,not_eat,approach,pos,approach-pos,1,1,723.8999999999069
sub-053,186,0,FALSE,right,approach,pos,cake13_crop.jpg,3,19,TRUE,185,2,2580.219,53,DON'T EAT                                    EAT,2578.9985,2564.8875,2478.726,left,2,right,right,eat,eat,approach,pos,approach-pos,1,1,1220.5
sub-053,187,0,FALSE,right,approach,pos,cake8_crop.jpg,3,19,TRUE,186,2,2581.7678,53,DON'T EAT                                    EAT,2581.0176,2564.8875,2478.726,left,2,right,right,eat,eat,approach,pos,approach-pos,1,1,750.2000000001863
sub-053,188,0,FALSE,right,approach,pos,cake31_crop.jpg,3,19,TRUE,187,2,2583.606,53,DON'T EAT                                    EAT,2583.036,2564.8875,2478.726,left,2,right,right,eat,eat,approach,pos,approach-pos,1,1,570
sub-053,189,0,TRUE,right,avoid,pos,meat28_crop.jpg,3,19,TRUE,188,1,2585.923,53,DON'T EAT                                    EAT,2585.0542,2564.8875,2478.726,left,1,left,left,not_eat,not_eat,approach,pos,approach-pos,1,1,868.7999999998137
sub-053,190,0,FALSE,right,approach,pos,cake36_crop.jpg,3,19,TRUE,189,2,2587.8042,53,DON'T EAT                                    EAT,2587.0725,2564.8875,2478.726,left,2,right,right,eat,eat,approach,pos,approach-pos,1,1,731.7000000001863
sub-053,191,0,TRUE,left,approach,neg,insect22_crop.jpg,3,20,TRUE,190,2,2607.2017,53,DON'T EAT                                    EAT,2606.5054,2602.485,2478.726,left,2,right,right,eat,eat,avoid,pos,avoid-pos,1,1,696.3000000002794
sub-053,192,0,FALSE,left,avoid,pos,meat23_crop.jpg,3,20,TRUE,191,1,2609.1895,53,DON'T EAT                                    EAT,2608.5232,2602.485,2478.726,left,1,left,left,not_eat,not_eat,avoid,pos,avoid-pos,1,1,666.2999999998137
sub-053,193,0,TRUE,left,approach,pos,cake31_crop.jpg,3,20,TRUE,192,2,2611.4094,53,DON'T EAT                                    EAT,2610.542,2602.485,2478.726,left,2,right,right,eat,eat,avoid,pos,avoid-pos,1,1,867.3999999999069
sub-053,194,0,FALSE,left,avoid,pos,meat34_crop.jpg,3,20,TRUE,193,1,2613.399,53,DON'T EAT                                    EAT,2612.5603,2602.485,2478.726,left,1,left,left,not_eat,not_eat,avoid,pos,avoid-pos,1,1,838.6999999997206
sub-053,195,0,FALSE,left,avoid,pos,meat26_crop.jpg,3,20,TRUE,194,1,2615.3079,53,DON'T EAT                                    EAT,2614.5786,2602.485,2478.726,left,1,left,left,not_eat,not_eat,avoid,pos,avoid-pos,1,1,729.3000000002794
sub-053,196,0,FALSE,left,avoid,pos,meat39_crop.jpg,3,20,TRUE,195,1,2617.2776,53,DON'T EAT                                    EAT,2616.5972,2602.485,2478.726,left,1,left,left,not_eat,not_eat,avoid,pos,avoid-pos,1,1,680.3999999999069
sub-053,197,0,FALSE,left,avoid,pos,meat18_crop.jpg,3,20,TRUE,196,1,2619.2866,53,DON'T EAT                                    EAT,2618.6155,2602.485,2478.726,left,1,left,left,not_eat,not_eat,avoid,pos,avoid-pos,1,1,671.1000000000931
sub-053,198,0,FALSE,left,avoid,pos,meat29_crop.jpg,3,20,TRUE,197,1,2621.3018,53,DON'T EAT                                    EAT,2620.634,2602.485,2478.726,left,1,left,left,not_eat,not_eat,avoid,pos,avoid-pos,1,1,667.8000000002794
sub-053,199,0,FALSE,left,avoid,pos,meat30_crop.jpg,3,20,TRUE,198,1,2623.3972,53,DON'T EAT                                    EAT,2622.652,2602.485,2478.726,left,1,left,left,not_eat,not_eat,avoid,pos,avoid-pos,1,1,745.1999999997206
sub-053,200,0,FALSE,left,avoid,pos,meat25_crop.jpg,3,20,TRUE,199,1,2625.251,53,DON'T EAT                                    EAT,2624.6704,2602.485,2478.726,left,1,left,left,not_eat,not_eat,avoid,pos,avoid-pos,1,1,580.6000000000931
sub-053,201,2,FALSE,right,approach,pos,cake4_crop.jpg,3,21,TRUE,200,2,2645.395,53,DON'T EAT                                    EAT,2644.5703,2640.55,2478.726,left,2,right,right,eat,eat,approach,pos,approach-pos,1,1,824.7000000001863
sub-053,202,2,FALSE,right,approach,pos,cake37_crop.jpg,3,21,TRUE,201,2,2647.1907,53,DON'T EAT                                    EAT,2646.5886,2640.55,2478.726,left,2,right,right,eat,eat,approach,pos,approach-pos,1,1,602.1000000000931
sub-053,203,2,FALSE,right,approach,pos,cake24_crop.jpg,3,21,TRUE,202,2,2649.2175,53,DON'T EAT                                    EAT,2648.607,2640.55,2478.726,left,2,right,right,eat,eat,approach,pos,approach-pos,1,1,610.5
sub-053,204,2,TRUE,right,avoid,pos,meat15_crop.jpg,3,21,TRUE,203,1,2651.7249,53,DON'T EAT                                    EAT,2650.6252,2640.55,2478.726,left,1,left,left,not_eat,not_eat,approach,pos,approach-pos,1,1,1099.700000000652
sub-053,205,2,FALSE,right,approach,pos,cake1_crop.jpg,3,21,TRUE,204,2,2653.3203,53,DON'T EAT                                    EAT,2652.6438,2640.55,2478.726,left,2,right,right,eat,eat,approach,pos,approach-pos,1,1,676.5
sub-053,206,2,FALSE,right,approach,pos,cake3_crop.jpg,3,21,TRUE,205,2,2655.2102,53,DON'T EAT                                    EAT,2654.662,2640.55,2478.726,left,2,right,right,eat,eat,approach,pos,approach-pos,1,1,548.2000000001863
sub-053,207,2,TRUE,right,avoid,neg,fungus21_crop.jpg,3,21,TRUE,206,1,2657.3904000000002,53,DON'T EAT                                    EAT,2656.6804,2640.55,2478.726,left,1,left,left,not_eat,not_eat,approach,pos,approach-pos,1,1,710
sub-053,208,2,FALSE,right,approach,pos,cake16_crop.jpg,3,21,TRUE,207,2,2659.259,53,DON'T EAT                                    EAT,2658.6987,2640.55,2478.726,left,2,right,right,eat,eat,approach,pos,approach-pos,1,1,560.3000000002794
sub-053,209,2,FALSE,right,approach,pos,cake30_crop.jpg,3,21,TRUE,208,2,2661.4934,53,DON'T EAT                                    EAT,2660.717,2640.55,2478.726,left,2,right,right,eat,eat,approach,pos,approach-pos,1,1,776.3999999999069
sub-053,210,2,FALSE,right,approach,pos,cake20_crop.jpg,3,21,TRUE,209,2,2663.349,53,DON'T EAT                                    EAT,2662.7354,2640.55,2478.726,left,2,right,right,eat,eat,approach,pos,approach-pos,1,1,613.6000000000931
sub-053,211,3,FALSE,left,approach,pos,cake22_crop.jpg,3,22,TRUE,210,2,2682.7512,53,DON'T EAT                                    EAT,2682.0508,2678.0315,2478.726,left,2,right,right,eat,eat,approach,pos,approach-pos,1,1,700.4000000003725
sub-053,212,3,FALSE,left,approach,pos,cake3_crop.jpg,3,22,TRUE,211,2,2684.5696,53,DON'T EAT                                    EAT,2684.0698,2678.0315,2478.726,left,2,right,right,eat,eat,approach,pos,approach-pos,1,1,499.7999999993481
sub-053,213,3,TRUE,left,avoid,neg,fungus10_crop.jpg,3,22,TRUE,212,1,2686.7524,53,DON'T EAT                                    EAT,2686.088,2678.0315,2478.726,left,1,left,left,not_eat,not_eat,approach,pos,approach-pos,1,1,664.3999999999069
sub-053,214,3,FALSE,left,approach,pos,cake2_crop.jpg,3,22,TRUE,213,2,2688.68,53,DON'T EAT                                    EAT,2688.1067,2678.0315,2478.726,left,2,right,right,eat,eat,approach,pos,approach-pos,1,1,573.3000000002794
sub-053,215,3,FALSE,left,approach,pos,cake17_crop.jpg,3,22,TRUE,214,2,2690.9255,53,DON'T EAT                                    EAT,2690.1243,2678.0315,2478.726,left,2,right,right,eat,eat,approach,pos,approach-pos,1,1,801.2000000001863
sub-053,216,3,FALSE,left,approach,pos,cake33_crop.jpg,3,22,TRUE,215,2,2692.6946,53,DON'T EAT                                    EAT,2692.143,2678.0315,2478.726,left,2,right,right,eat,eat,approach,pos,approach-pos,1,1,551.5999999996275
sub-053,217,3,FALSE,left,approach,pos,cake39_crop.jpg,3,22,TRUE,216,2,2694.9336,53,DON'T EAT                                    EAT,2694.1611,2678.0315,2478.726,left,2,right,right,eat,eat,approach,pos,approach-pos,1,1,772.5
sub-053,218,3,FALSE,left,approach,pos,cake21_crop.jpg,3,22,TRUE,217,2,2696.7505,53,DON'T EAT                                    EAT,2696.1797,2678.0315,2478.726,left,2,right,right,eat,eat,approach,pos,approach-pos,1,1,570.7999999998137
sub-053,219,3,FALSE,left,approach,pos,cake20_crop.jpg,3,22,TRUE,218,2,2698.9688,53,DON'T EAT                                    EAT,2698.1978,2678.0315,2478.726,left,2,right,right,eat,eat,approach,pos,approach-pos,1,1,771.0000000004657
sub-053,220,3,TRUE,left,avoid,pos,meat7_crop.jpg,3,22,TRUE,219,1,2700.9482,53,DON'T EAT                                    EAT,2700.2166,2678.0315,2478.726,left,1,left,left,not_eat,not_eat,approach,pos,approach-pos,1,1,731.5999999996275
sub-053,221,3,FALSE,right,avoid,neg,fungus9_crop.jpg,3,23,TRUE,220,1,2718.6187,53,DON'T EAT                                    EAT,2717.8977,2713.8777,2478.726,left,1,left,left,not_eat,not_eat,avoid,neg,avoid-neg,1,1,721
sub-053,222,3,FALSE,right,avoid,neg,fungus36_crop.jpg,3,23,TRUE,221,1,2720.4736,53,DON'T EAT                                    EAT,2719.9163,2713.8777,2478.726,left,1,left,left,not_eat,not_eat,avoid,neg,avoid-neg,1,1,557.2999999998137
sub-053,223,3,FALSE,right,avoid,neg,fungus38_crop.jpg,3,23,TRUE,222,1,2722.4985,53,DON'T EAT                                    EAT,2721.934,2713.8777,2478.726,left,1,left,left,not_eat,not_eat,avoid,neg,avoid-neg,1,1,564.5
sub-053,224,3,TRUE,right,approach,neg,insect5_crop.jpg,3,23,TRUE,223,2,2724.6965,53,DON'T EAT                                    EAT,2723.953,2713.8777,2478.726,left,2,right,right,eat,eat,avoid,neg,avoid-neg,1,1,743.5
sub-053,225,3,FALSE,right,avoid,neg,fungus19_crop.jpg,3,23,TRUE,224,1,2726.6252,53,DON'T EAT                                    EAT,2725.9712,2713.8777,2478.726,left,1,left,left,not_eat,not_eat,avoid,neg,avoid-neg,1,1,653.9999999995343
sub-053,226,3,FALSE,right,avoid,neg,fungus12_crop.jpg,3,23,TRUE,225,1,2728.6675,53,DON'T EAT                                    EAT,2727.9895,2713.8777,2478.726,left,1,left,left,not_eat,not_eat,avoid,neg,avoid-neg,1,1,678
sub-053,227,3,TRUE,right,approach,pos,cake40_crop.jpg,3,23,TRUE,226,2,2730.728,53,DON'T EAT                                    EAT,2730.0076,2713.8777,2478.726,left,2,right,right,eat,eat,avoid,neg,avoid-neg,1,1,720.3999999999069
sub-053,228,3,FALSE,right,avoid,neg,fungus16_crop.jpg,3,23,TRUE,227,1,2732.695,53,DON'T EAT                                    EAT,2732.026,2713.8777,2478.726,left,1,left,left,not_eat,not_eat,avoid,neg,avoid-neg,1,1,669
sub-053,229,3,FALSE,right,avoid,neg,fungus23_crop.jpg,3,23,TRUE,228,1,2734.7305,53,DON'T EAT                                    EAT,2734.0444,2713.8777,2478.726,left,1,left,left,not_eat,not_eat,avoid,neg,avoid-neg,1,1,686.0999999996275
sub-053,230,3,FALSE,right,avoid,neg,fungus17_crop.jpg,3,23,TRUE,229,1,2736.7383,53,DON'T EAT                                    EAT,2736.063,2713.8777,2478.726,left,1,left,left,not_eat,not_eat,avoid,neg,avoid-neg,1,1,675.2999999998137
sub-053,231,2,FALSE,left,avoid,pos,meat12_crop.jpg,3,24,TRUE,230,1,2753.987,53,DON'T EAT                                    EAT,2753.127,2749.1072,2478.726,left,1,left,left,not_eat,not_eat,avoid,pos,avoid-pos,1,1,860
sub-053,232,2,FALSE,left,avoid,pos,meat36_crop.jpg,3,24,TRUE,231,1,2755.7563,53,DON'T EAT                                    EAT,2755.1455,2749.1072,2478.726,left,1,left,left,not_eat,not_eat,avoid,pos,avoid-pos,1,1,610.7999999998137
sub-053,233,2,FALSE,left,avoid,pos,meat10_crop.jpg,3,24,TRUE,232,1,2757.735,53,DON'T EAT                                    EAT,2757.1638,2749.1072,2478.726,left,1,left,left,not_eat,not_eat,avoid,pos,avoid-pos,1,1,571.2000000001863
sub-053,234,2,FALSE,left,avoid,pos,meat5_crop.jpg,3,24,TRUE,233,1,2759.7637,53,DON'T EAT                                    EAT,2759.1821,2749.1072,2478.726,left,1,left,left,not_eat,not_eat,avoid,pos,avoid-pos,1,1,581.6000000000931
sub-053,235,2,FALSE,left,avoid,pos,meat24_crop.jpg,3,24,TRUE,234,1,2761.845,53,DON'T EAT                                    EAT,2761.2004,2749.1072,2478.726,left,1,left,left,not_eat,not_eat,avoid,pos,avoid-pos,1,1,644.5999999996275
sub-053,236,2,TRUE,left,approach,neg,insect19_crop.jpg,3,24,TRUE,235,2,2763.8535,53,DON'T EAT                                    EAT,2763.2188,2749.1072,2478.726,left,2,right,right,eat,eat,avoid,pos,avoid-pos,1,1,634.6999999997206
sub-053,237,2,FALSE,left,avoid,pos,meat33_crop.jpg,3,24,TRUE,236,1,2765.8186,53,DON'T EAT                                    EAT,2765.2373,2749.1072,2478.726,left,1,left,left,not_eat,not_eat,avoid,pos,avoid-pos,1,1,581.3000000002794
sub-053,238,2,TRUE,left,approach,pos,cake10_crop.jpg,3,24,TRUE,237,2,2768.2053,53,DON'T EAT                                    EAT,2767.2556,2749.1072,2478.726,left,2,right,right,eat,eat,avoid,pos,avoid-pos,1,1,949.7000000001863
sub-053,239,2,FALSE,left,avoid,pos,meat13_crop.jpg,3,24,TRUE,238,1,2769.9836,53,DON'T EAT                                    EAT,2769.274,2749.1072,2478.726,left,1,left,left,not_eat,not_eat,avoid,pos,avoid-pos,1,1,709.6000000000931
sub-053,240,2,FALSE,left,avoid,pos,meat35_crop.jpg,3,24,TRUE,239,1,2772.0168,53,DON'T EAT                                    EAT,2771.2922,2749.1072,2478.726,left,1,left,left,not_eat,not_eat,avoid,pos,avoid-pos,1,1,724.6000000000931
sub-053,241,1,FALSE,right,approach,pos,cake10_crop.jpg,4,25,TRUE,240,2,2888.9976,53,DON'T EAT                                    EAT,2887.8225,2883.8022,2873.5781,right,2,right,right,eat,eat,approach,pos,approach-pos,1,1,1175.1000000000931
sub-053,242,1,FALSE,right,approach,pos,cake29_crop.jpg,4,25,TRUE,241,2,2890.3806,53,DON'T EAT                                    EAT,2889.8406,2883.8022,2873.5781,right,2,right,right,eat,eat,approach,pos,approach-pos,1,1,540
sub-053,243,1,FALSE,right,approach,pos,cake15_crop.jpg,4,25,TRUE,242,2,2892.287,53,DON'T EAT                                    EAT,2891.8591,2883.8022,2873.5781,right,2,right,right,eat,eat,approach,pos,approach-pos,1,1,427.89999999990687
sub-053,244,1,FALSE,right,approach,pos,cake6_crop.jpg,4,25,TRUE,243,2,2894.3455,53,DON'T EAT                                    EAT,2893.8774,2883.8022,2873.5781,right,2,right,right,eat,eat,approach,pos,approach-pos,1,1,468.10000000009313
sub-053,245,1,FALSE,right,approach,pos,cake32_crop.jpg,4,25,TRUE,244,2,2896.32,53,DON'T EAT                                    EAT,2895.8958,2883.8022,2873.5781,right,2,right,right,eat,eat,approach,pos,approach-pos,1,1,424.20000000018626
sub-053,246,1,FALSE,right,approach,pos,cake25_crop.jpg,4,25,TRUE,245,2,2898.3464,53,DON'T EAT                                    EAT,2897.9143,2883.8022,2873.5781,right,2,right,right,eat,eat,approach,pos,approach-pos,1,1,432.10000000009313
sub-053,247,1,FALSE,right,approach,pos,cake28_crop.jpg,4,25,TRUE,246,2,2900.3347,53,DON'T EAT                                    EAT,2899.9324,2883.8022,2873.5781,right,2,right,right,eat,eat,approach,pos,approach-pos,1,1,402.2999999993481
sub-053,248,1,TRUE,right,avoid,neg,fungus27_crop.jpg,4,25,TRUE,247,1,2902.6047,53,DON'T EAT                                    EAT,2901.9507,2883.8022,2873.5781,right,1,left,left,not_eat,not_eat,approach,pos,approach-pos,1,1,654
sub-053,249,1,TRUE,right,avoid,pos,meat14_crop.jpg,4,25,TRUE,248,1,2904.9094,53,DON'T EAT                                    EAT,2903.9692,2883.8022,2873.5781,right,1,left,left,not_eat,not_eat,approach,pos,approach-pos,1,1,940.1999999997206
sub-053,250,1,FALSE,right,approach,pos,cake34_crop.jpg,4,25,TRUE,249,2,2906.8672,53,DON'T EAT                                    EAT,2905.9875,2883.8022,2873.5781,right,2,right,right,eat,eat,approach,pos,approach-pos,1,1,879.7000000001863
sub-053,251,1,FALSE,left,approach,pos,cake15_crop.jpg,4,26,TRUE,250,2,2926.582,53,DON'T EAT                                    EAT,2925.7039,2921.6836,2873.5781,right,2,right,right,eat,eat,approach,pos,approach-pos,1,1,878.1000000000931
sub-053,252,1,TRUE,left,avoid,pos,meat3_crop.jpg,4,26,TRUE,251,1,2928.4502,53,DON'T EAT                                    EAT,2927.7222,2921.6836,2873.5781,right,1,left,left,not_eat,not_eat,approach,pos,approach-pos,1,1,728
sub-053,253,1,FALSE,left,approach,pos,cake5_crop.jpg,4,26,TRUE,252,2,2930.5347,53,DON'T EAT                                    EAT,2929.7407,2921.6836,2873.5781,right,2,right,right,eat,eat,approach,pos,approach-pos,1,1,794.0000000004657
sub-053,254,1,FALSE,left,approach,pos,cake40_crop.jpg,4,26,TRUE,253,2,2932.474,53,DON'T EAT                                    EAT,2931.7588,2921.6836,2873.5781,right,2,right,right,eat,eat,approach,pos,approach-pos,1,1,715.1999999997206
sub-053,255,1,FALSE,left,approach,pos,cake25_crop.jpg,4,26,TRUE,254,2,2934.454,53,DON'T EAT                                    EAT,2933.7773,2921.6836,2873.5781,right,2,right,right,eat,eat,approach,pos,approach-pos,1,1,676.6999999997206
sub-053,256,1,FALSE,left,approach,pos,cake35_crop.jpg,4,26,TRUE,255,2,2936.3672,53,DON'T EAT                                    EAT,2935.7957,2921.6836,2873.5781,right,2,right,right,eat,eat,approach,pos,approach-pos,1,1,571.5
sub-053,257,1,FALSE,left,approach,pos,cake19_crop.jpg,4,26,TRUE,256,2,2938.513,53,DON'T EAT                                    EAT,2937.8142,2921.6836,2873.5781,right,2,right,right,eat,eat,approach,pos,approach-pos,1,1,698.8000000002794
sub-053,258,1,FALSE,left,approach,pos,cake11_crop.jpg,4,26,TRUE,257,2,2940.4658,53,DON'T EAT                                    EAT,2939.8323,2921.6836,2873.5781,right,2,right,right,eat,eat,approach,pos,approach-pos,1,1,633.5
sub-053,259,1,FALSE,left,approach,pos,cake6_crop.jpg,4,26,TRUE,258,2,2942.4897,53,DON'T EAT                                    EAT,2941.8506,2921.6836,2873.5781,right,2,right,right,eat,eat,approach,pos,approach-pos,1,1,639.1000000000931
sub-053,260,1,TRUE,left,avoid,neg,fungus8_crop.jpg,4,26,TRUE,259,1,2944.5896,53,DON'T EAT                                    EAT,2943.869,2921.6836,2873.5781,right,1,left,left,not_eat,not_eat,approach,pos,approach-pos,1,1,720.5999999996275
sub-053,261,0,FALSE,left,approach,neg,insect6_crop.jpg,4,27,TRUE,260,2,2961.4084,53,DON'T EAT                                    EAT,2960.5828,2956.5627,2873.5781,right,2,right,right,eat,eat,approach,neg,approach-neg,1,1,825.5999999996275
sub-053,262,0,FALSE,left,approach,neg,insect18_crop.jpg,4,27,TRUE,261,2,2963.123,53,DON'T EAT                                    EAT,2962.6013,2956.5627,2873.5781,right,2,right,right,eat,eat,approach,neg,approach-neg,1,1,521.7000000001863
sub-053,263,0,TRUE,left,avoid,neg,fungus14_crop.jpg,4,27,TRUE,262,1,2965.4336,53,DON'T EAT                                    EAT,2964.6194,2956.5627,2873.5781,right,1,left,left,not_eat,not_eat,approach,neg,approach-neg,1,1,814.1999999997206
sub-053,264,0,FALSE,left,approach,neg,insect13_crop.jpg,4,27,TRUE,263,2,2967.1987,53,DON'T EAT                                    EAT,2966.6377,2956.5627,2873.5781,right,2,right,right,eat,eat,approach,neg,approach-neg,1,1,560.9999999995343
sub-053,265,0,FALSE,left,approach,neg,insect24_crop.jpg,4,27,TRUE,264,2,2969.2815,53,DON'T EAT                                    EAT,2968.6562,2956.5627,2873.5781,right,2,right,right,eat,eat,approach,neg,approach-neg,1,1,625.3000000002794
sub-053,266,0,FALSE,left,approach,neg,insect2_crop.jpg,4,27,TRUE,265,2,2971.3535,53,DON'T EAT                                    EAT,2970.6743,2956.5627,2873.5781,right,2,right,right,eat,eat,approach,neg,approach-neg,1,1,679.1999999997206
sub-053,267,0,FALSE,left,approach,neg,insect25_crop.jpg,4,27,TRUE,266,2,2973.2537,53,DON'T EAT                                    EAT,2972.6929,2956.5627,2873.5781,right,2,right,right,eat,eat,approach,neg,approach-neg,1,1,560.8000000002794
sub-053,268,0,FALSE,left,approach,neg,insect31_crop.jpg,4,27,TRUE,267,2,2975.1653,53,DON'T EAT                                    EAT,2974.7112,2956.5627,2873.5781,right,2,right,right,eat,eat,approach,neg,approach-neg,1,1,454.10000000009313
sub-053,269,0,TRUE,left,avoid,pos,meat37_crop.jpg,4,27,TRUE,268,1,2977.491,53,DON'T EAT                                    EAT,2976.7295,2956.5627,2873.5781,right,1,left,left,not_eat,not_eat,approach,neg,approach-neg,1,1,761.5
sub-053,270,0,FALSE,left,approach,neg,insect38_crop.jpg,4,27,TRUE,269,2,2979.3186,53,DON'T EAT                                    EAT,2978.7476,2956.5627,2873.5781,right,2,right,right,eat,eat,approach,neg,approach-neg,1,1,571
sub-053,271,1,TRUE,right,avoid,pos,meat13_crop.jpg,4,28,TRUE,270,1,2999.738,53,DON'T EAT                                    EAT,2998.531,2994.511,2873.5781,right,1,left,left,not_eat,not_eat,approach,neg,approach-neg,1,1,1207
sub-053,272,1,FALSE,right,approach,neg,insect2_crop.jpg,4,28,TRUE,271,2,3001.2173,53,DON'T EAT                                    EAT,3000.5493,2994.511,2873.5781,right,2,right,right,eat,eat,approach,neg,approach-neg,1,1,667.9999999995343
sub-053,273,1,FALSE,right,approach,neg,insect1_crop.jpg,4,28,TRUE,272,2,3003.1912,53,DON'T EAT                                    EAT,3002.5679,2994.511,2873.5781,right,2,right,right,eat,eat,approach,neg,approach-neg,1,1,623.3000000002794
sub-053,274,1,FALSE,right,approach,neg,insect18_crop.jpg,4,28,TRUE,273,2,3005.0908,53,DON'T EAT                                    EAT,3004.5857,2994.511,2873.5781,right,2,right,right,eat,eat,approach,neg,approach-neg,1,1,505.09999999962747
sub-053,275,1,FALSE,right,approach,neg,insect27_crop.jpg,4,28,TRUE,274,2,3006.995,53,DON'T EAT                                    EAT,3006.6042,2994.511,2873.5781,right,2,right,right,eat,eat,approach,neg,approach-neg,1,1,390.79999999981374
sub-053,276,1,FALSE,right,approach,neg,insect35_crop.jpg,4,28,TRUE,275,2,3009.0776,53,DON'T EAT                                    EAT,3008.6228,2994.511,2873.5781,right,2,right,right,eat,eat,approach,neg,approach-neg,1,1,454.79999999981374
sub-053,277,1,FALSE,right,approach,neg,insect31_crop.jpg,4,28,TRUE,276,2,3011.0737,53,DON'T EAT                                    EAT,3010.6409,2994.511,2873.5781,right,2,right,right,eat,eat,approach,neg,approach-neg,1,1,432.79999999981374
sub-053,278,1,FALSE,right,approach,neg,insect36_crop.jpg,4,28,TRUE,277,2,3013.3286,53,DON'T EAT                                    EAT,3012.6594,2994.511,2873.5781,right,2,right,right,eat,eat,approach,neg,approach-neg,1,1,669.1999999997206
sub-053,279,1,FALSE,right,approach,neg,insect28_crop.jpg,4,28,TRUE,278,2,3015.1943,53,DON'T EAT                                    EAT,3014.6777,2994.511,2873.5781,right,2,right,right,eat,eat,approach,neg,approach-neg,1,1,516.6000000000931
sub-053,280,1,TRUE,right,avoid,neg,fungus28_crop.jpg,4,28,TRUE,279,1,3017.3936,53,DON'T EAT                                    EAT,3016.696,2994.511,2873.5781,right,1,left,left,not_eat,not_eat,approach,neg,approach-neg,1,1,697.6000000000931
sub-053,281,2,FALSE,right,approach,neg,insect32_crop.jpg,4,29,TRUE,280,2,3034.989,53,DON'T EAT                                    EAT,3034.3108,3030.2908,2873.5781,right,2,right,right,eat,eat,approach,neg,approach-neg,1,1,678.1999999997206
sub-053,282,2,FALSE,right,approach,neg,insect9_crop.jpg,4,29,TRUE,281,2,3036.814,53,DON'T EAT                                    EAT,3036.329,3030.2908,2873.5781,right,2,right,right,eat,eat,approach,neg,approach-neg,1,1,485
sub-053,283,2,FALSE,right,approach,neg,insect14_crop.jpg,4,29,TRUE,282,2,3038.8013,53,DON'T EAT                                    EAT,3038.3477,3030.2908,2873.5781,right,2,right,right,eat,eat,approach,neg,approach-neg,1,1,453.6000000005588
sub-053,284,2,TRUE,right,avoid,neg,fungus34_crop.jpg,4,29,TRUE,283,1,3040.991,53,DON'T EAT                                    EAT,3040.3657,3030.2908,2873.5781,right,1,left,left,not_eat,not_eat,approach,neg,approach-neg,1,1,625.3000000002794
sub-053,285,2,FALSE,right,approach,neg,insect6_crop.jpg,4,29,TRUE,284,2,3042.9224,53,DON'T EAT                                    EAT,3042.384,3030.2908,2873.5781,right,2,right,right,eat,eat,approach,neg,approach-neg,1,1,538.3999999999069
sub-053,286,2,FALSE,right,approach,neg,insect34_crop.jpg,4,29,TRUE,285,2,3045.207,53,DON'T EAT                                    EAT,3044.4023,3030.2908,2873.5781,right,2,right,right,eat,eat,approach,neg,approach-neg,1,1,804.6999999997206
sub-053,287,2,FALSE,right,approach,neg,insect19_crop.jpg,4,29,TRUE,286,2,3047.0134,53,DON'T EAT                                    EAT,3046.4207,3030.2908,2873.5781,right,2,right,right,eat,eat,approach,neg,approach-neg,1,1,592.6999999997206
sub-053,288,2,FALSE,right,approach,neg,insect39_crop.jpg,4,29,TRUE,287,2,3049.3577,53,DON'T EAT                                    EAT,3048.4392,3030.2908,2873.5781,right,2,right,right,eat,eat,approach,neg,approach-neg,1,1,918.5000000004657
sub-053,289,2,TRUE,right,avoid,pos,meat22_crop.jpg,4,29,TRUE,288,1,3051.1682,53,DON'T EAT                                    EAT,3050.4575,3030.2908,2873.5781,right,1,left,left,not_eat,not_eat,approach,neg,approach-neg,1,1,710.7000000001863
sub-053,290,2,FALSE,right,approach,neg,insect29_crop.jpg,4,29,TRUE,289,2,3053.318,53,DON'T EAT                                    EAT,3052.4758,3030.2908,2873.5781,right,2,right,right,eat,eat,approach,neg,approach-neg,1,1,842.1999999997206
sub-053,291,2,TRUE,right,approach,neg,insect8_crop.jpg,4,30,TRUE,290,2,3072.3174,53,DON'T EAT                                    EAT,3071.625,3067.6047,2873.5781,right,2,right,right,eat,eat,avoid,pos,avoid-pos,1,1,692.3999999999069
sub-053,292,2,FALSE,right,avoid,pos,meat39_crop.jpg,4,30,TRUE,291,1,3074.7986,53,DON'T EAT                                    EAT,3073.6436,3067.6047,2873.5781,right,1,left,left,not_eat,not_eat,avoid,pos,avoid-pos,1,1,1155
sub-053,293,2,FALSE,right,avoid,pos,meat30_crop.jpg,4,30,TRUE,292,1,3076.4775,53,DON'T EAT                                    EAT,3075.6619,3067.6047,2873.5781,right,1,left,left,not_eat,not_eat,avoid,pos,avoid-pos,1,1,815.6000000000931
sub-053,294,2,FALSE,right,avoid,pos,meat37_crop.jpg,4,30,TRUE,293,1,3078.3882,53,DON'T EAT                                    EAT,3077.68,3067.6047,2873.5781,right,1,left,left,not_eat,not_eat,avoid,pos,avoid-pos,1,1,708.1999999997206
sub-053,295,2,FALSE,right,avoid,pos,meat35_crop.jpg,4,30,TRUE,294,1,3080.2275,53,DON'T EAT                                    EAT,3079.6982,3067.6047,2873.5781,right,1,left,left,not_eat,not_eat,avoid,pos,avoid-pos,1,1,529.3000000002794
sub-053,296,2,FALSE,right,avoid,pos,meat27_crop.jpg,4,30,TRUE,295,1,3082.2598,53,DON'T EAT                                    EAT,3081.7168,3067.6047,2873.5781,right,1,left,left,not_eat,not_eat,avoid,pos,avoid-pos,1,1,542.9999999995343
sub-053,297,2,FALSE,right,avoid,pos,meat36_crop.jpg,4,30,TRUE,296,1,3084.179,53,DON'T EAT                                    EAT,3083.7349,3067.6047,2873.5781,right,1,left,left,not_eat,not_eat,avoid,pos,avoid-pos,1,1,444.10000000009313
sub-053,298,2,FALSE,right,avoid,pos,meat5_crop.jpg,4,30,TRUE,297,1,3086.4312,53,DON'T EAT                                    EAT,3085.7534,3067.6047,2873.5781,right,1,left,left,not_eat,not_eat,avoid,pos,avoid-pos,1,1,677.8000000002794
sub-053,299,2,FALSE,right,avoid,pos,meat18_crop.jpg,4,30,TRUE,298,1,3088.3672,53,DON'T EAT                                    EAT,3087.7717,3067.6047,2873.5781,right,1,left,left,not_eat,not_eat,avoid,pos,avoid-pos,1,1,595.5000000004657
sub-053,300,2,TRUE,right,approach,pos,cake18_crop.jpg,4,30,TRUE,299,2,3090.6487,53,DON'T EAT                                    EAT,3089.79,3067.6047,2873.5781,right,2,right,right,eat,eat,avoid,pos,avoid-pos,1,1,858.7000000001863
sub-053,301,3,TRUE,right,avoid,pos,meat9_crop.jpg,4,31,TRUE,300,1,3107.5967,53,DON'T EAT                                    EAT,3106.4539,3102.4338,2873.5781,right,1,left,left,not_eat,not_eat,approach,neg,approach-neg,1,1,1142.8000000002794
sub-053,302,3,FALSE,right,approach,neg,insect24_crop.jpg,4,31,TRUE,301,2,3109.1165,53,DON'T EAT                                    EAT,3108.4724,3102.4338,2873.5781,right,2,right,right,eat,eat,approach,neg,approach-neg,1,1,644.1000000000931
sub-053,303,3,FALSE,right,approach,neg,insect33_crop.jpg,4,31,TRUE,302,2,3111.0618,53,DON'T EAT                                    EAT,3110.4907,3102.4338,2873.5781,right,2,right,right,eat,eat,approach,neg,approach-neg,1,1,571.1000000000931
sub-053,304,3,FALSE,right,approach,neg,insect37_crop.jpg,4,31,TRUE,303,2,3113.1545,53,DON'T EAT                                    EAT,3112.509,3102.4338,2873.5781,right,2,right,right,eat,eat,approach,neg,approach-neg,1,1,645.5
sub-053,305,3,FALSE,right,approach,neg,insect11_crop.jpg,4,31,TRUE,304,2,3115.131,53,DON'T EAT                                    EAT,3114.5273,3102.4338,2873.5781,right,2,right,right,eat,eat,approach,neg,approach-neg,1,1,603.6999999997206
sub-053,306,3,FALSE,right,approach,neg,insect12_crop.jpg,4,31,TRUE,305,2,3117.1482,53,DON'T EAT                                    EAT,3116.5457,3102.4338,2873.5781,right,2,right,right,eat,eat,approach,neg,approach-neg,1,1,602.5
sub-053,307,3,FALSE,right,approach,neg,insect38_crop.jpg,4,31,TRUE,306,2,3119.1775,53,DON'T EAT                                    EAT,3118.5642,3102.4338,2873.5781,right,2,right,right,eat,eat,approach,neg,approach-neg,1,1,613.3000000002794
sub-053,308,3,FALSE,right,approach,neg,insect40_crop.jpg,4,31,TRUE,307,2,3121.253,53,DON'T EAT                                    EAT,3120.5823,3102.4338,2873.5781,right,2,right,right,eat,eat,approach,neg,approach-neg,1,1,670.7000000001863
sub-053,309,3,FALSE,right,approach,neg,insect4_crop.jpg,4,31,TRUE,308,2,3123.4175,53,DON'T EAT                                    EAT,3122.6008,3102.4338,2873.5781,right,2,right,right,eat,eat,approach,neg,approach-neg,1,1,816.6999999997206
sub-053,310,3,TRUE,right,avoid,neg,fungus32_crop.jpg,4,31,TRUE,309,1,3125.41,53,DON'T EAT                                    EAT,3124.619,3102.4338,2873.5781,right,1,left,left,not_eat,not_eat,approach,neg,approach-neg,1,1,791
sub-053,311,0,FALSE,left,avoid,neg,fungus29_crop.jpg,4,32,TRUE,310,1,3143.2065,53,DON'T EAT                                    EAT,3142.4,3138.3804,2873.5781,right,1,left,left,not_eat,not_eat,avoid,neg,avoid-neg,1,1,806.5
sub-053,312,0,FALSE,left,avoid,neg,fungus35_crop.jpg,4,32,TRUE,311,1,3145.0647,53,DON'T EAT                                    EAT,3144.419,3138.3804,2873.5781,right,1,left,left,not_eat,not_eat,avoid,neg,avoid-neg,1,1,645.6999999997206
sub-053,313,0,FALSE,left,avoid,neg,fungus13_crop.jpg,4,32,TRUE,312,1,3147.0496,53,DON'T EAT                                    EAT,3146.4373,3138.3804,2873.5781,right,1,left,left,not_eat,not_eat,avoid,neg,avoid-neg,1,1,612.2999999993481
sub-053,314,0,FALSE,left,avoid,neg,fungus28_crop.jpg,4,32,TRUE,313,1,3149.1572,53,DON'T EAT                                    EAT,3148.4556,3138.3804,2873.5781,right,1,left,left,not_eat,not_eat,avoid,neg,avoid-neg,1,1,701.6000000005588
sub-053,315,0,FALSE,left,avoid,neg,fungus38_crop.jpg,4,32,TRUE,314,1,3151.0881,53,DON'T EAT                                    EAT,3150.474,3138.3804,2873.5781,right,1,left,left,not_eat,not_eat,avoid,neg,avoid-neg,1,1,614.1000000000931
sub-053,316,0,TRUE,left,approach,neg,insect35_crop.jpg,4,32,TRUE,315,2,3153.3374,53,DON'T EAT                                    EAT,3152.4922,3138.3804,2873.5781,right,2,right,right,eat,eat,avoid,neg,avoid-neg,1,1,845.1999999997206
sub-053,317,0,FALSE,left,avoid,neg,fungus19_crop.jpg,4,32,TRUE,316,1,3155.044,53,DON'T EAT                                    EAT,3154.5105,3138.3804,2873.5781,right,1,left,left,not_eat,not_eat,avoid,neg,avoid-neg,1,1,533.5
sub-053,318,0,TRUE,left,approach,pos,cake27_crop.jpg,4,32,TRUE,317,2,3157.324,53,DON'T EAT                                    EAT,3156.5288,3138.3804,2873.5781,right,2,right,right,eat,eat,avoid,neg,avoid-neg,1,1,795.2000000001863
sub-053,319,0,FALSE,left,avoid,neg,fungus20_crop.jpg,4,32,TRUE,318,1,3159.258,53,DON'T EAT                                    EAT,3158.5474,3138.3804,2873.5781,right,1,left,left,not_eat,not_eat,avoid,neg,avoid-neg,1,1,710.6000000000931
sub-053,320,0,FALSE,left,avoid,neg,fungus5_crop.jpg,4,32,TRUE,319,1,3161.2334,53,DON'T EAT                                    EAT,3160.5657,3138.3804,2873.5781,right,1,left,left,not_eat,not_eat,avoid,neg,avoid-neg,1,1,667.6999999997206
