subject,trial_number,n_block,catch,hand,mot,val,stim_name,run_number,num_block,ran,order,response,time_of_response,subject_number,left_side_resp_label,trial_onset,blk_instr_onset,baseline_onset,response_hand,response_cleaned,response_lat,response_lat_cleaned,response_meaning,response_meaning_cleaned,condition_mot,condition_val,condition,correct,correct_cleaned,rt
sub-098,1,1,FALSE,left,approach,neg,insect9_crop.jpg,1,1,TRUE,0,1,1466.604,98,EAT                                    DON'T EAT,1465.6553,1461.6355,1451.3812,right,1,left,left,eat,eat,approach,neg,approach-neg,1,1,948.7000000001863
sub-098,2,1,TRUE,left,avoid,neg,fungus32_crop.jpg,1,1,TRUE,1,2,1468.9209,98,EAT                                    DON'T EAT,1467.6738,1461.6355,1451.3812,right,2,right,right,not_eat,not_eat,approach,neg,approach-neg,1,1,1247.1000000000931
sub-098,3,1,FALSE,left,approach,neg,insect31_crop.jpg,1,1,TRUE,2,1,1470.4495,98,EAT                                    DON'T EAT,1469.6919,1461.6355,1451.3812,right,1,left,left,eat,eat,approach,neg,approach-neg,1,1,757.5999999998603
sub-098,4,1,FALSE,left,approach,neg,insect12_crop.jpg,1,1,TRUE,3,1,1472.2916,98,EAT                                    DON'T EAT,1471.7134,1461.6355,1451.3812,right,1,left,left,eat,eat,approach,neg,approach-neg,1,1,578.1999999999534
sub-098,5,1,FALSE,left,approach,neg,insect15_crop.jpg,1,1,TRUE,4,1,1474.2592,98,EAT                                    DON'T EAT,1473.7307,1461.6355,1451.3812,right,1,left,left,eat,eat,approach,neg,approach-neg,1,1,528.4999999997672
sub-098,6,1,FALSE,left,approach,neg,insect8_crop.jpg,1,1,TRUE,5,1,1476.5476,98,EAT                                    DON'T EAT,1475.7471,1461.6355,1451.3812,right,1,left,left,eat,eat,approach,neg,approach-neg,1,1,800.5
sub-098,7,1,FALSE,left,approach,neg,insect1_crop.jpg,1,1,TRUE,6,1,1478.4513,98,EAT                                    DON'T EAT,1477.7656,1461.6355,1451.3812,right,1,left,left,eat,eat,approach,neg,approach-neg,1,1,685.7000000001863
sub-098,8,1,FALSE,left,approach,neg,insect11_crop.jpg,1,1,TRUE,7,1,1480.2905,98,EAT                                    DON'T EAT,1479.7833,1461.6355,1451.3812,right,1,left,left,eat,eat,approach,neg,approach-neg,1,1,507.19999999995343
sub-098,9,1,FALSE,left,approach,neg,insect6_crop.jpg,1,1,TRUE,8,1,1482.4155,98,EAT                                    DON'T EAT,1481.8022,1461.6355,1451.3812,right,1,left,left,eat,eat,approach,neg,approach-neg,1,1,613.2999999998137
sub-098,10,1,TRUE,left,avoid,pos,meat28_crop.jpg,1,1,TRUE,9,2,1484.719,98,EAT                                    DON'T EAT,1483.8206,1461.6355,1451.3812,right,2,right,right,not_eat,not_eat,approach,neg,approach-neg,1,1,898.3999999999069
sub-098,11,0,FALSE,left,avoid,pos,meat5_crop.jpg,1,2,TRUE,10,2,1501.2762,98,EAT                                    DON'T EAT,1500.3175,1496.2975,1451.3812,right,2,right,right,not_eat,not_eat,avoid,pos,avoid-pos,1,1,958.6999999999534
sub-098,12,0,FALSE,left,avoid,pos,meat8_crop.jpg,1,2,TRUE,11,2,1503.0725,98,EAT                                    DON'T EAT,1502.3358,1496.2975,1451.3812,right,2,right,right,not_eat,not_eat,avoid,pos,avoid-pos,1,1,736.6999999999534
sub-098,13,0,FALSE,left,avoid,pos,meat32_crop.jpg,1,2,TRUE,12,2,1504.9242,98,EAT                                    DON'T EAT,1504.3542,1496.2975,1451.3812,right,2,right,right,not_eat,not_eat,avoid,pos,avoid-pos,1,1,570
sub-098,14,0,TRUE,left,approach,neg,insect38_crop.jpg,1,2,TRUE,13,1,1507.1858,98,EAT                                    DON'T EAT,1506.3727,1496.2975,1451.3812,right,1,left,left,eat,eat,avoid,pos,avoid-pos,1,1,813.1000000000931
sub-098,15,0,FALSE,left,avoid,pos,meat20_crop.jpg,1,2,TRUE,14,2,1509.0883,98,EAT                                    DON'T EAT,1508.391,1496.2975,1451.3812,right,2,right,right,not_eat,not_eat,avoid,pos,avoid-pos,1,1,697.2999999998137
sub-098,16,0,FALSE,left,avoid,pos,meat37_crop.jpg,1,2,TRUE,15,2,1511.0835,98,EAT                                    DON'T EAT,1510.4093,1496.2975,1451.3812,right,2,right,right,not_eat,not_eat,avoid,pos,avoid-pos,1,1,674.1999999999534
sub-098,17,0,TRUE,left,approach,pos,cake31_crop.jpg,1,2,TRUE,16,1,1513.3567,98,EAT                                    DON'T EAT,1512.4272,1496.2975,1451.3812,right,1,left,left,eat,eat,avoid,pos,avoid-pos,1,1,929.4999999997672
sub-098,18,0,FALSE,left,avoid,pos,meat12_crop.jpg,1,2,TRUE,17,2,1515.2565,98,EAT                                    DON'T EAT,1514.4458,1496.2975,1451.3812,right,2,right,right,not_eat,not_eat,avoid,pos,avoid-pos,1,1,810.6999999999534
sub-098,19,0,FALSE,left,avoid,pos,meat33_crop.jpg,1,2,TRUE,18,2,1517.3638,98,EAT                                    DON'T EAT,1516.4644,1496.2975,1451.3812,right,2,right,right,not_eat,not_eat,avoid,pos,avoid-pos,1,1,899.3999999999069
sub-098,20,0,FALSE,left,avoid,pos,meat31_crop.jpg,1,2,TRUE,19,2,1519.1774,98,EAT                                    DON'T EAT,1518.4827,1496.2975,1451.3812,right,2,right,right,not_eat,not_eat,avoid,pos,avoid-pos,1,1,694.7000000001863
sub-098,21,0,FALSE,left,approach,neg,insect29_crop.jpg,1,3,TRUE,20,1,1536.687,98,EAT                                    DON'T EAT,1535.7472,1531.7269,1451.3812,right,1,left,left,eat,eat,approach,neg,approach-neg,1,1,939.8000000000466
sub-098,22,0,FALSE,left,approach,neg,insect32_crop.jpg,1,3,TRUE,21,1,1538.366,98,EAT                                    DON'T EAT,1537.7649,1531.7269,1451.3812,right,1,left,left,eat,eat,approach,neg,approach-neg,1,1,601.1000000000931
sub-098,23,0,TRUE,left,avoid,pos,meat9_crop.jpg,1,3,TRUE,22,2,1540.8636,98,EAT                                    DON'T EAT,1539.7837,1531.7269,1451.3812,right,2,right,right,not_eat,not_eat,approach,neg,approach-neg,1,1,1079.8999999999069
sub-098,24,0,FALSE,left,approach,neg,insect20_crop.jpg,1,3,TRUE,23,1,1542.4774,98,EAT                                    DON'T EAT,1541.8021,1531.7269,1451.3812,right,1,left,left,eat,eat,approach,neg,approach-neg,1,1,675.2999999998137
sub-098,25,0,FALSE,left,approach,neg,insect35_crop.jpg,1,3,TRUE,24,1,1544.6616,98,EAT                                    DON'T EAT,1543.8203,1531.7269,1451.3812,right,1,left,left,eat,eat,approach,neg,approach-neg,1,1,841.2999999998137
sub-098,26,0,FALSE,left,approach,neg,insect14_crop.jpg,1,3,TRUE,25,1,1546.4589,98,EAT                                    DON'T EAT,1545.8386,1531.7269,1451.3812,right,1,left,left,eat,eat,approach,neg,approach-neg,1,1,620.3000000000466
sub-098,27,0,FALSE,left,approach,neg,insect5_crop.jpg,1,3,TRUE,26,1,1548.3744,98,EAT                                    DON'T EAT,1547.8569,1531.7269,1451.3812,right,1,left,left,eat,eat,approach,neg,approach-neg,1,1,517.5
sub-098,28,0,TRUE,left,avoid,neg,fungus29_crop.jpg,1,3,TRUE,27,2,1550.846,98,EAT                                    DON'T EAT,1549.875,1531.7269,1451.3812,right,2,right,right,not_eat,not_eat,approach,neg,approach-neg,1,1,971
sub-098,29,0,FALSE,left,approach,neg,insect16_crop.jpg,1,3,TRUE,28,1,1552.5696,98,EAT                                    DON'T EAT,1551.8937,1531.7269,1451.3812,right,1,left,left,eat,eat,approach,neg,approach-neg,1,1,675.8999999999069
sub-098,30,0,FALSE,left,approach,neg,insect13_crop.jpg,1,3,TRUE,29,1,1554.5557,98,EAT                                    DON'T EAT,1553.912,1531.7269,1451.3812,right,1,left,left,eat,eat,approach,neg,approach-neg,1,1,643.6999999999534
sub-098,31,3,FALSE,left,approach,neg,insect10_crop.jpg,1,4,TRUE,30,1,1572.3263,98,EAT                                    DON'T EAT,1571.6935,1567.6735,1451.3812,right,1,left,left,eat,eat,approach,neg,approach-neg,1,1,632.8000000000466
sub-098,32,3,FALSE,left,approach,neg,insect23_crop.jpg,1,4,TRUE,31,1,1574.2821,98,EAT                                    DON'T EAT,1573.7117,1567.6735,1451.3812,right,1,left,left,eat,eat,approach,neg,approach-neg,1,1,570.3999999999069
sub-098,33,3,TRUE,left,avoid,pos,meat16_crop.jpg,1,4,TRUE,32,2,1576.3201,98,EAT                                    DON'T EAT,1575.7301,1567.6735,1451.3812,right,2,right,right,not_eat,not_eat,approach,neg,approach-neg,1,1,589.9999999997672
sub-098,34,3,FALSE,left,approach,neg,insect30_crop.jpg,1,4,TRUE,33,1,1578.2866,98,EAT                                    DON'T EAT,1577.7484,1567.6735,1451.3812,right,1,left,left,eat,eat,approach,neg,approach-neg,1,1,538.1999999999534
sub-098,35,3,FALSE,left,approach,neg,insect39_crop.jpg,1,4,TRUE,34,1,1580.4204,98,EAT                                    DON'T EAT,1579.7667,1567.6735,1451.3812,right,1,left,left,eat,eat,approach,neg,approach-neg,1,1,653.6999999999534
sub-098,36,3,FALSE,left,approach,neg,insect37_crop.jpg,1,4,TRUE,35,1,1582.5205,98,EAT                                    DON'T EAT,1581.785,1567.6735,1451.3812,right,1,left,left,eat,eat,approach,neg,approach-neg,1,1,735.5
sub-098,37,3,FALSE,left,approach,neg,insect7_crop.jpg,1,4,TRUE,36,1,1584.4252,98,EAT                                    DON'T EAT,1583.8032,1567.6735,1451.3812,right,1,left,left,eat,eat,approach,neg,approach-neg,1,1,622
sub-098,38,3,TRUE,left,avoid,neg,fungus14_crop.jpg,1,4,TRUE,37,2,1586.9165,98,EAT                                    DON'T EAT,1585.8219,1567.6735,1451.3812,right,2,right,right,not_eat,not_eat,approach,neg,approach-neg,1,1,1094.6000000000931
sub-098,39,3,FALSE,left,approach,neg,insect28_crop.jpg,1,4,TRUE,38,1,1588.6097,98,EAT                                    DON'T EAT,1587.8402,1567.6735,1451.3812,right,1,left,left,eat,eat,approach,neg,approach-neg,1,1,769.4999999997672
sub-098,40,3,FALSE,left,approach,neg,insect3_crop.jpg,1,4,TRUE,39,1,1590.4058,98,EAT                                    DON'T EAT,1589.8586,1567.6735,1451.3812,right,1,left,left,eat,eat,approach,neg,approach-neg,1,1,547.1999999999534
sub-098,41,1,FALSE,left,avoid,neg,fungus21_crop.jpg,1,5,TRUE,40,2,1608.3616,98,EAT                                    DON'T EAT,1607.3397,1603.3197,1451.3812,right,2,right,right,not_eat,not_eat,avoid,neg,avoid-neg,1,1,1021.8999999999069
sub-098,42,1,FALSE,left,avoid,neg,fungus35_crop.jpg,1,5,TRUE,41,2,1610.156,98,EAT                                    DON'T EAT,1609.3575,1603.3197,1451.3812,right,2,right,right,not_eat,not_eat,avoid,neg,avoid-neg,1,1,798.5
sub-098,43,1,FALSE,left,avoid,neg,fungus19_crop.jpg,1,5,TRUE,42,2,1612.0217,98,EAT                                    DON'T EAT,1611.3759,1603.3197,1451.3812,right,2,right,right,not_eat,not_eat,avoid,neg,avoid-neg,1,1,645.8000000000466
sub-098,44,1,FALSE,left,avoid,neg,fungus37_crop.jpg,1,5,TRUE,43,2,1614.2336,98,EAT                                    DON'T EAT,1613.3943,1603.3197,1451.3812,right,2,right,right,not_eat,not_eat,avoid,neg,avoid-neg,1,1,839.3000000002794
sub-098,45,1,FALSE,left,avoid,neg,fungus16_crop.jpg,1,5,TRUE,44,2,1616.1824,98,EAT                                    DON'T EAT,1615.4131,1603.3197,1451.3812,right,2,right,right,not_eat,not_eat,avoid,neg,avoid-neg,1,1,769.2999999998137
sub-098,46,1,FALSE,left,avoid,neg,fungus26_crop.jpg,1,5,TRUE,45,2,1618.1595,98,EAT                                    DON'T EAT,1617.4314,1603.3197,1451.3812,right,2,right,right,not_eat,not_eat,avoid,neg,avoid-neg,1,1,728.1000000000931
sub-098,47,1,FALSE,left,avoid,neg,fungus33_crop.jpg,1,5,TRUE,46,2,1620.0745,98,EAT                                    DON'T EAT,1619.4497,1603.3197,1451.3812,right,2,right,right,not_eat,not_eat,avoid,neg,avoid-neg,1,1,624.8000000000466
sub-098,48,1,TRUE,left,approach,pos,cake39_crop.jpg,1,5,TRUE,47,1,1622.2784,98,EAT                                    DON'T EAT,1621.468,1603.3197,1451.3812,right,1,left,left,eat,eat,avoid,neg,avoid-neg,1,1,810.3999999999069
sub-098,49,1,FALSE,left,avoid,neg,fungus15_crop.jpg,1,5,TRUE,48,2,1624.2559,98,EAT                                    DON'T EAT,1623.4863,1603.3197,1451.3812,right,2,right,right,not_eat,not_eat,avoid,neg,avoid-neg,1,1,769.6000000000931
sub-098,50,1,TRUE,left,approach,neg,insect4_crop.jpg,1,5,TRUE,49,1,1626.1454,98,EAT                                    DON'T EAT,1625.5049,1603.3197,1451.3812,right,1,left,left,eat,eat,avoid,neg,avoid-neg,1,1,640.5000000002328
sub-098,51,0,FALSE,right,avoid,pos,meat39_crop.jpg,1,6,TRUE,50,2,1644.7388,98,EAT                                    DON'T EAT,1643.5864,1639.5659,1451.3812,right,2,right,right,not_eat,not_eat,avoid,pos,avoid-pos,1,1,1152.4000000001397
sub-098,52,0,FALSE,right,avoid,pos,meat7_crop.jpg,1,6,TRUE,51,2,1646.3029,98,EAT                                    DON'T EAT,1645.6049,1639.5659,1451.3812,right,2,right,right,not_eat,not_eat,avoid,pos,avoid-pos,1,1,697.9999999997672
sub-098,53,0,FALSE,right,avoid,pos,meat38_crop.jpg,1,6,TRUE,52,2,1648.2247,98,EAT                                    DON'T EAT,1647.6233,1639.5659,1451.3812,right,2,right,right,not_eat,not_eat,avoid,pos,avoid-pos,1,1,601.3999999999069
sub-098,54,0,FALSE,right,avoid,pos,meat11_crop.jpg,1,6,TRUE,53,2,1650.2012,98,EAT                                    DON'T EAT,1649.6415,1639.5659,1451.3812,right,2,right,right,not_eat,not_eat,avoid,pos,avoid-pos,1,1,559.6999999999534
sub-098,55,0,TRUE,right,approach,neg,insect28_crop.jpg,1,6,TRUE,54,1,1652.3052,98,EAT                                    DON'T EAT,1651.6598,1639.5659,1451.3812,right,1,left,left,eat,eat,avoid,pos,avoid-pos,1,1,645.4000000001397
sub-098,56,0,TRUE,right,approach,pos,cake31_crop.jpg,1,6,TRUE,55,1,1654.5634,98,EAT                                    DON'T EAT,1653.6781,1639.5659,1451.3812,right,1,left,left,eat,eat,avoid,pos,avoid-pos,1,1,885.2999999998137
sub-098,57,0,FALSE,right,avoid,pos,meat28_crop.jpg,1,6,TRUE,56,2,1656.4783,98,EAT                                    DON'T EAT,1655.6965,1639.5659,1451.3812,right,2,right,right,not_eat,not_eat,avoid,pos,avoid-pos,1,1,781.8000000000466
sub-098,58,0,FALSE,right,avoid,pos,meat37_crop.jpg,1,6,TRUE,57,2,1658.3501,98,EAT                                    DON'T EAT,1657.715,1639.5659,1451.3812,right,2,right,right,not_eat,not_eat,avoid,pos,avoid-pos,1,1,635.1000000000931
sub-098,59,0,FALSE,right,avoid,pos,meat29_crop.jpg,1,6,TRUE,58,2,1660.4165,98,EAT                                    DON'T EAT,1659.733,1639.5659,1451.3812,right,2,right,right,not_eat,not_eat,avoid,pos,avoid-pos,1,1,683.5
sub-098,60,0,FALSE,right,avoid,pos,meat13_crop.jpg,1,6,TRUE,59,2,1662.3091,98,EAT                                    DON'T EAT,1661.7515,1639.5659,1451.3812,right,2,right,right,not_eat,not_eat,avoid,pos,avoid-pos,1,1,557.5999999998603
sub-098,61,2,FALSE,left,approach,neg,insect25_crop.jpg,1,7,TRUE,60,1,1682.4744,98,EAT                                    DON'T EAT,1681.6848,1677.6646,1451.3812,right,1,left,left,eat,eat,approach,neg,approach-neg,1,1,789.6000000000931
sub-098,62,2,FALSE,left,approach,neg,insect33_crop.jpg,1,7,TRUE,61,1,1684.3547,98,EAT                                    DON'T EAT,1683.7028,1677.6646,1451.3812,right,1,left,left,eat,eat,approach,neg,approach-neg,1,1,651.9000000001397
sub-098,63,2,FALSE,left,approach,neg,insect24_crop.jpg,1,7,TRUE,62,1,1686.3011,98,EAT                                    DON'T EAT,1685.7214,1677.6646,1451.3812,right,1,left,left,eat,eat,approach,neg,approach-neg,1,1,579.6999999999534
sub-098,64,2,FALSE,left,approach,neg,insect22_crop.jpg,1,7,TRUE,63,1,1688.3615,98,EAT                                    DON'T EAT,1687.7399,1677.6646,1451.3812,right,1,left,left,eat,eat,approach,neg,approach-neg,1,1,621.5999999998603
sub-098,65,2,TRUE,left,avoid,pos,meat30_crop.jpg,1,7,TRUE,64,2,1690.3619,98,EAT                                    DON'T EAT,1689.758,1677.6646,1451.3812,right,2,right,right,not_eat,not_eat,approach,neg,approach-neg,1,1,603.9000000001397
sub-098,66,2,TRUE,left,avoid,neg,fungus12_crop.jpg,1,7,TRUE,65,2,1693.0612,98,EAT                                    DON'T EAT,1691.7761,1677.6646,1451.3812,right,2,right,right,not_eat,not_eat,approach,neg,approach-neg,1,1,1285.1000000000931
sub-098,67,2,FALSE,left,approach,neg,insect40_crop.jpg,1,7,TRUE,66,1,1694.5518,98,EAT                                    DON'T EAT,1693.7947,1677.6646,1451.3812,right,1,left,left,eat,eat,approach,neg,approach-neg,1,1,757.1000000000931
sub-098,68,2,FALSE,left,approach,neg,insect18_crop.jpg,1,7,TRUE,67,1,1696.5183,98,EAT                                    DON'T EAT,1695.8132,1677.6646,1451.3812,right,1,left,left,eat,eat,approach,neg,approach-neg,1,1,705.1000000000931
sub-098,69,2,FALSE,left,approach,neg,insect26_crop.jpg,1,7,TRUE,68,1,1698.4136,98,EAT                                    DON'T EAT,1697.8314,1677.6646,1451.3812,right,1,left,left,eat,eat,approach,neg,approach-neg,1,1,582.1999999999534
sub-098,70,2,FALSE,left,approach,neg,insect36_crop.jpg,1,7,TRUE,69,1,1700.6503,98,EAT                                    DON'T EAT,1699.8497,1677.6646,1451.3812,right,1,left,left,eat,eat,approach,neg,approach-neg,1,1,800.6000000000931
sub-098,71,2,TRUE,right,avoid,neg,fungus14_crop.jpg,1,8,TRUE,70,2,1718.4894,98,EAT                                    DON'T EAT,1717.6981,1713.678,1451.3812,right,2,right,right,not_eat,not_eat,approach,neg,approach-neg,1,1,791.2999999998137
sub-098,72,2,FALSE,right,approach,neg,insect24_crop.jpg,1,8,TRUE,71,1,1720.3271,98,EAT                                    DON'T EAT,1719.7162,1713.678,1451.3812,right,1,left,left,eat,eat,approach,neg,approach-neg,1,1,610.899999999674
sub-098,73,2,FALSE,right,approach,neg,insect8_crop.jpg,1,8,TRUE,72,1,1722.2992,98,EAT                                    DON'T EAT,1721.7341,1713.678,1451.3812,right,1,left,left,eat,eat,approach,neg,approach-neg,1,1,565.1000000000931
sub-098,74,2,TRUE,right,avoid,pos,meat10_crop.jpg,1,8,TRUE,73,2,1724.4597,98,EAT                                    DON'T EAT,1723.753,1713.678,1451.3812,right,2,right,right,not_eat,not_eat,approach,neg,approach-neg,1,1,706.7000000001863
sub-098,75,2,FALSE,right,approach,neg,insect6_crop.jpg,1,8,TRUE,74,1,1726.2781,98,EAT                                    DON'T EAT,1725.7714,1713.678,1451.3812,right,1,left,left,eat,eat,approach,neg,approach-neg,1,1,506.69999999995343
sub-098,76,2,FALSE,right,approach,neg,insect3_crop.jpg,1,8,TRUE,75,1,1728.3488,98,EAT                                    DON'T EAT,1727.7896,1713.678,1451.3812,right,1,left,left,eat,eat,approach,neg,approach-neg,1,1,559.1999999999534
sub-098,77,2,FALSE,right,approach,neg,insect32_crop.jpg,1,8,TRUE,76,1,1730.3497,98,EAT                                    DON'T EAT,1729.808,1713.678,1451.3812,right,1,left,left,eat,eat,approach,neg,approach-neg,1,1,541.6999999999534
sub-098,78,2,FALSE,right,approach,neg,insect37_crop.jpg,1,8,TRUE,77,1,1732.4056,98,EAT                                    DON'T EAT,1731.8263,1713.678,1451.3812,right,1,left,left,eat,eat,approach,neg,approach-neg,1,1,579.3000000000466
sub-098,79,2,FALSE,right,approach,neg,insect11_crop.jpg,1,8,TRUE,78,1,1734.4119,98,EAT                                    DON'T EAT,1733.8448,1713.678,1451.3812,right,1,left,left,eat,eat,approach,neg,approach-neg,1,1,567.1000000000931
sub-098,80,2,FALSE,right,approach,neg,insect35_crop.jpg,1,8,TRUE,79,1,1736.3778,98,EAT                                    DON'T EAT,1735.8632,1713.678,1451.3812,right,1,left,left,eat,eat,approach,neg,approach-neg,1,1,514.6000000000931
sub-098,81,1,FALSE,right,approach,neg,insect1_crop.jpg,2,9,TRUE,80,1,1885.0513,98,EAT                                    DON'T EAT,1883.9027,1879.8826,1869.8481,left,1,left,left,eat,eat,approach,neg,approach-neg,1,1,1148.5999999998603
sub-098,82,1,FALSE,right,approach,neg,insect27_crop.jpg,2,9,TRUE,81,1,1886.6066,98,EAT                                    DON'T EAT,1885.9209,1879.8826,1869.8481,left,1,left,left,eat,eat,approach,neg,approach-neg,1,1,685.6999999999534
sub-098,83,1,FALSE,right,approach,neg,insect23_crop.jpg,2,9,TRUE,82,1,1888.4015,98,EAT                                    DON'T EAT,1887.9392,1879.8826,1869.8481,left,1,left,left,eat,eat,approach,neg,approach-neg,1,1,462.30000000004657
sub-098,84,1,FALSE,right,approach,neg,insect29_crop.jpg,2,9,TRUE,83,1,1890.4004,98,EAT                                    DON'T EAT,1889.9576,1879.8826,1869.8481,left,1,left,left,eat,eat,approach,neg,approach-neg,1,1,442.80000000004657
sub-098,85,1,FALSE,right,approach,neg,insect39_crop.jpg,2,9,TRUE,84,1,1892.4293,98,EAT                                    DON'T EAT,1891.9755,1879.8826,1869.8481,left,1,left,left,eat,eat,approach,neg,approach-neg,1,1,453.80000000004657
sub-098,86,1,TRUE,right,avoid,pos,meat40_crop.jpg,2,9,TRUE,85,2,1894.8182,98,EAT                                    DON'T EAT,1893.9944,1879.8826,1869.8481,left,2,right,right,not_eat,not_eat,approach,neg,approach-neg,1,1,823.7999999998137
sub-098,87,1,FALSE,right,approach,neg,insect7_crop.jpg,2,9,TRUE,86,1,1896.6793,98,EAT                                    DON'T EAT,1896.0127,1879.8826,1869.8481,left,1,left,left,eat,eat,approach,neg,approach-neg,1,1,666.6000000000931
sub-098,88,1,TRUE,right,avoid,neg,fungus40_crop.jpg,2,9,TRUE,87,2,1898.9747,98,EAT                                    DON'T EAT,1898.0311,1879.8826,1869.8481,left,2,right,right,not_eat,not_eat,approach,neg,approach-neg,1,1,943.6000000000931
sub-098,89,1,FALSE,right,approach,neg,insect16_crop.jpg,2,9,TRUE,88,1,1900.6907,98,EAT                                    DON'T EAT,1900.0493,1879.8826,1869.8481,left,1,left,left,eat,eat,approach,neg,approach-neg,1,1,641.4000000003725
sub-098,90,1,FALSE,right,approach,neg,insect40_crop.jpg,2,9,TRUE,89,1,1902.667,98,EAT                                    DON'T EAT,1902.0676,1879.8826,1869.8481,left,1,left,left,eat,eat,approach,neg,approach-neg,1,1,599.3999999999069
sub-098,91,3,FALSE,right,avoid,pos,meat16_crop.jpg,2,10,TRUE,90,2,1922.58,98,EAT                                    DON'T EAT,1921.6841,1917.6641,1869.8481,left,2,right,right,not_eat,not_eat,avoid,pos,avoid-pos,1,1,895.9000000001397
sub-098,92,3,TRUE,right,approach,pos,cake11_crop.jpg,2,10,TRUE,91,1,1924.6444,98,EAT                                    DON'T EAT,1923.7024,1917.6641,1869.8481,left,1,left,left,eat,eat,avoid,pos,avoid-pos,1,1,942
sub-098,93,3,FALSE,right,avoid,pos,meat24_crop.jpg,2,10,TRUE,92,2,1926.3639,98,EAT                                    DON'T EAT,1925.7207,1917.6641,1869.8481,left,2,right,right,not_eat,not_eat,avoid,pos,avoid-pos,1,1,643.1999999999534
sub-098,94,3,TRUE,right,approach,neg,insect10_crop.jpg,2,10,TRUE,93,1,1928.4572,98,EAT                                    DON'T EAT,1927.739,1917.6641,1869.8481,left,1,left,left,eat,eat,avoid,pos,avoid-pos,1,1,718.1999999999534
sub-098,95,3,FALSE,right,avoid,pos,meat4_crop.jpg,2,10,TRUE,94,2,1930.3602,98,EAT                                    DON'T EAT,1929.7573,1917.6641,1869.8481,left,2,right,right,not_eat,not_eat,avoid,pos,avoid-pos,1,1,602.9000000001397
sub-098,96,3,FALSE,right,avoid,pos,meat23_crop.jpg,2,10,TRUE,95,2,1932.3553,98,EAT                                    DON'T EAT,1931.7758,1917.6641,1869.8481,left,2,right,right,not_eat,not_eat,avoid,pos,avoid-pos,1,1,579.5000000002328
sub-098,97,3,FALSE,right,avoid,pos,meat1_crop.jpg,2,10,TRUE,96,2,1934.5232,98,EAT                                    DON'T EAT,1933.7942,1917.6641,1869.8481,left,2,right,right,not_eat,not_eat,avoid,pos,avoid-pos,1,1,729.0000000002328
sub-098,98,3,FALSE,right,avoid,pos,meat6_crop.jpg,2,10,TRUE,97,2,1936.5062,98,EAT                                    DON'T EAT,1935.8124,1917.6641,1869.8481,left,2,right,right,not_eat,not_eat,avoid,pos,avoid-pos,1,1,693.7999999998137
sub-098,99,3,FALSE,right,avoid,pos,meat27_crop.jpg,2,10,TRUE,98,2,1938.5288,98,EAT                                    DON'T EAT,1937.8307,1917.6641,1869.8481,left,2,right,right,not_eat,not_eat,avoid,pos,avoid-pos,1,1,698.1000000000931
sub-098,100,3,FALSE,right,avoid,pos,meat14_crop.jpg,2,10,TRUE,99,2,1940.5537,98,EAT                                    DON'T EAT,1939.849,1917.6641,1869.8481,left,2,right,right,not_eat,not_eat,avoid,pos,avoid-pos,1,1,704.6999999999534
sub-098,101,2,FALSE,right,avoid,pos,meat20_crop.jpg,2,11,TRUE,100,2,1957.5986,98,EAT                                    DON'T EAT,1956.8799,1952.8599,1869.8481,left,2,right,right,not_eat,not_eat,avoid,pos,avoid-pos,1,1,718.7000000001863
sub-098,102,2,FALSE,right,avoid,pos,meat31_crop.jpg,2,11,TRUE,101,2,1959.4568,98,EAT                                    DON'T EAT,1958.8982,1952.8599,1869.8481,left,2,right,right,not_eat,not_eat,avoid,pos,avoid-pos,1,1,558.5999999996275
sub-098,103,2,FALSE,right,avoid,pos,meat21_crop.jpg,2,11,TRUE,102,2,1961.4547,98,EAT                                    DON'T EAT,1960.9165,1952.8599,1869.8481,left,2,right,right,not_eat,not_eat,avoid,pos,avoid-pos,1,1,538.1999999999534
sub-098,104,2,FALSE,right,avoid,pos,meat19_crop.jpg,2,11,TRUE,103,2,1963.4305,98,EAT                                    DON'T EAT,1962.9349,1952.8599,1869.8481,left,2,right,right,not_eat,not_eat,avoid,pos,avoid-pos,1,1,495.60000000009313
sub-098,105,2,FALSE,right,avoid,pos,meat25_crop.jpg,2,11,TRUE,104,2,1965.5425,98,EAT                                    DON'T EAT,1964.953,1952.8599,1869.8481,left,2,right,right,not_eat,not_eat,avoid,pos,avoid-pos,1,1,589.5
sub-098,106,2,FALSE,right,avoid,pos,meat3_crop.jpg,2,11,TRUE,105,2,1967.49,98,EAT                                    DON'T EAT,1966.9716,1952.8599,1869.8481,left,2,right,right,not_eat,not_eat,avoid,pos,avoid-pos,1,1,518.3999999999069
sub-098,107,2,TRUE,right,approach,neg,insect14_crop.jpg,2,11,TRUE,106,1,1969.6654,98,EAT                                    DON'T EAT,1968.9899,1952.8599,1869.8481,left,1,left,left,eat,eat,avoid,pos,avoid-pos,1,1,675.5
sub-098,108,2,TRUE,right,approach,pos,cake9_crop.jpg,2,11,TRUE,107,1,1971.8762,98,EAT                                    DON'T EAT,1971.0083,1952.8599,1869.8481,left,1,left,left,eat,eat,avoid,pos,avoid-pos,1,1,867.8999999999069
sub-098,109,2,FALSE,right,avoid,pos,meat8_crop.jpg,2,11,TRUE,108,2,1973.7318,98,EAT                                    DON'T EAT,1973.0266,1952.8599,1869.8481,left,2,right,right,not_eat,not_eat,avoid,pos,avoid-pos,1,1,705.2000000001863
sub-098,110,2,FALSE,right,avoid,pos,meat35_crop.jpg,2,11,TRUE,109,2,1975.6255,98,EAT                                    DON'T EAT,1975.0449,1952.8599,1869.8481,left,2,right,right,not_eat,not_eat,avoid,pos,avoid-pos,1,1,580.5999999998603
sub-098,111,0,FALSE,left,approach,pos,cake34_crop.jpg,2,12,TRUE,110,2,1994.1368,98,EAT                                    DON'T EAT,1993.21,1989.19,1869.8481,left,2,right,right,not_eat,not_eat,approach,pos,approach-pos,0,0,926.8000000000466
sub-098,112,0,FALSE,left,approach,pos,cake14_crop.jpg,2,12,TRUE,111,1,1996.0625,98,EAT                                    DON'T EAT,1995.2284,1989.19,1869.8481,left,1,left,left,eat,eat,approach,pos,approach-pos,1,1,834.1000000000931
sub-098,113,0,TRUE,left,avoid,neg,fungus7_crop.jpg,2,12,TRUE,112,2,1998.0052,98,EAT                                    DON'T EAT,1997.2467,1989.19,1869.8481,left,2,right,right,not_eat,not_eat,approach,pos,approach-pos,1,1,758.5
sub-098,114,0,FALSE,left,approach,pos,cake25_crop.jpg,2,12,TRUE,113,1,1999.8905,98,EAT                                    DON'T EAT,1999.2651,1989.19,1869.8481,left,1,left,left,eat,eat,approach,pos,approach-pos,1,1,625.3999999999069
sub-098,115,0,FALSE,left,approach,pos,cake18_crop.jpg,2,12,TRUE,114,1,2002.2733,98,EAT                                    DON'T EAT,2001.2834,1989.19,1869.8481,left,1,left,left,eat,eat,approach,pos,approach-pos,1,1,989.8999999999069
sub-098,116,0,FALSE,left,approach,pos,cake26_crop.jpg,2,12,TRUE,115,1,2003.9878,98,EAT                                    DON'T EAT,2003.3018,1989.19,1869.8481,left,1,left,left,eat,eat,approach,pos,approach-pos,1,1,686
sub-098,117,0,TRUE,left,avoid,pos,meat13_crop.jpg,2,12,TRUE,116,2,2006.1338,98,EAT                                    DON'T EAT,2005.3202000000001,1989.19,1869.8481,left,2,right,right,not_eat,not_eat,approach,pos,approach-pos,1,1,813.5999999998603
sub-098,118,0,FALSE,left,approach,pos,cake23_crop.jpg,2,12,TRUE,117,1,2008.2871,98,EAT                                    DON'T EAT,2007.3385,1989.19,1869.8481,left,1,left,left,eat,eat,approach,pos,approach-pos,1,1,948.6000000000931
sub-098,119,0,FALSE,left,approach,pos,cake4_crop.jpg,2,12,TRUE,118,1,2010.1152,98,EAT                                    DON'T EAT,2009.3567,1989.19,1869.8481,left,1,left,left,eat,eat,approach,pos,approach-pos,1,1,758.5
sub-098,120,0,FALSE,left,approach,pos,cake17_crop.jpg,2,12,TRUE,119,1,2012.1149,98,EAT                                    DON'T EAT,2011.3749,1989.19,1869.8481,left,1,left,left,eat,eat,approach,pos,approach-pos,1,1,740
sub-098,121,0,TRUE,right,avoid,pos,meat12_crop.jpg,2,13,TRUE,120,2,2031.9838,98,EAT                                    DON'T EAT,2031.1079,2027.0881,1869.8481,left,2,right,right,not_eat,not_eat,approach,pos,approach-pos,1,1,875.9000000001397
sub-098,122,0,FALSE,right,approach,pos,cake3_crop.jpg,2,13,TRUE,121,1,2033.9586,98,EAT                                    DON'T EAT,2033.1265,2027.0881,1869.8481,left,1,left,left,eat,eat,approach,pos,approach-pos,1,1,832.0999999998603
sub-098,123,0,TRUE,right,avoid,neg,fungus21_crop.jpg,2,13,TRUE,122,2,2035.8955,98,EAT                                    DON'T EAT,2035.1449,2027.0881,1869.8481,left,2,right,right,not_eat,not_eat,approach,pos,approach-pos,1,1,750.6000000000931
sub-098,124,0,FALSE,right,approach,pos,cake5_crop.jpg,2,13,TRUE,123,1,2037.8477,98,EAT                                    DON'T EAT,2037.163,2027.0881,1869.8481,left,1,left,left,eat,eat,approach,pos,approach-pos,1,1,684.6999999999534
sub-098,125,0,FALSE,right,approach,pos,cake37_crop.jpg,2,13,TRUE,124,1,2039.8827000000001,98,EAT                                    DON'T EAT,2039.1815,2027.0881,1869.8481,left,1,left,left,eat,eat,approach,pos,approach-pos,1,1,701.2000000001863
sub-098,126,0,FALSE,right,approach,pos,cake35_crop.jpg,2,13,TRUE,125,1,2041.7183,98,EAT                                    DON'T EAT,2041.2,2027.0881,1869.8481,left,1,left,left,eat,eat,approach,pos,approach-pos,1,1,518.3000000000466
sub-098,127,0,FALSE,right,approach,pos,cake14_crop.jpg,2,13,TRUE,126,1,2043.7242,98,EAT                                    DON'T EAT,2043.2181,2027.0881,1869.8481,left,1,left,left,eat,eat,approach,pos,approach-pos,1,1,506.10000000009313
sub-098,128,0,FALSE,right,approach,pos,cake34_crop.jpg,2,13,TRUE,127,1,2045.7747,98,EAT                                    DON'T EAT,2045.2366,2027.0881,1869.8481,left,1,left,left,eat,eat,approach,pos,approach-pos,1,1,538.1000000000931
sub-098,129,0,FALSE,right,approach,pos,cake23_crop.jpg,2,13,TRUE,128,1,2047.7705,98,EAT                                    DON'T EAT,2047.255,2027.0881,1869.8481,left,1,left,left,eat,eat,approach,pos,approach-pos,1,1,515.5
sub-098,130,0,FALSE,right,approach,pos,cake1_crop.jpg,2,13,TRUE,129,1,2049.8547,98,EAT                                    DON'T EAT,2049.2732,2027.0881,1869.8481,left,1,left,left,eat,eat,approach,pos,approach-pos,1,1,581.4999999997672
sub-098,131,0,FALSE,right,avoid,neg,fungus30_crop.jpg,2,14,TRUE,130,2,2069.3638,98,EAT                                    DON'T EAT,2068.4058,2064.3857,1869.8481,left,2,right,right,not_eat,not_eat,avoid,neg,avoid-neg,1,1,958
sub-098,132,0,TRUE,right,approach,pos,cake40_crop.jpg,2,14,TRUE,131,1,2071.2266,98,EAT                                    DON'T EAT,2070.424,2064.3857,1869.8481,left,1,left,left,eat,eat,avoid,neg,avoid-neg,1,1,802.5999999998603
sub-098,133,0,FALSE,right,avoid,neg,fungus8_crop.jpg,2,14,TRUE,132,2,2073.2417,98,EAT                                    DON'T EAT,2072.4426,2064.3857,1869.8481,left,2,right,right,not_eat,not_eat,avoid,neg,avoid-neg,1,1,799.1000000000931
sub-098,134,0,FALSE,right,avoid,neg,fungus31_crop.jpg,2,14,TRUE,133,2,2075.1267,98,EAT                                    DON'T EAT,2074.461,2064.3857,1869.8481,left,2,right,right,not_eat,not_eat,avoid,neg,avoid-neg,1,1,665.6999999999534
sub-098,135,0,FALSE,right,avoid,neg,fungus18_crop.jpg,2,14,TRUE,134,2,2077.3438,98,EAT                                    DON'T EAT,2076.4792,2064.3857,1869.8481,left,2,right,right,not_eat,not_eat,avoid,neg,avoid-neg,1,1,864.5999999998603
sub-098,136,0,FALSE,right,avoid,neg,fungus6_crop.jpg,2,14,TRUE,135,2,2079.3186,98,EAT                                    DON'T EAT,2078.4976,2064.3857,1869.8481,left,2,right,right,not_eat,not_eat,avoid,neg,avoid-neg,1,1,821
sub-098,137,0,FALSE,right,avoid,neg,fungus37_crop.jpg,2,14,TRUE,136,2,2081.064,98,EAT                                    DON'T EAT,2080.5159,2064.3857,1869.8481,left,2,right,right,not_eat,not_eat,avoid,neg,avoid-neg,1,1,548.0999999998603
sub-098,138,0,FALSE,right,avoid,neg,fungus24_crop.jpg,2,14,TRUE,137,2,2083.2405,98,EAT                                    DON'T EAT,2082.5342,2064.3857,1869.8481,left,2,right,right,not_eat,not_eat,avoid,neg,avoid-neg,1,1,706.3000000000466
sub-098,139,0,FALSE,right,avoid,neg,fungus28_crop.jpg,2,14,TRUE,138,2,2085.1067,98,EAT                                    DON'T EAT,2084.552,2064.3857,1869.8481,left,2,right,right,not_eat,not_eat,avoid,neg,avoid-neg,1,1,554.6999999994878
sub-098,140,0,TRUE,right,approach,neg,insect17_crop.jpg,2,14,TRUE,139,1,2087.2783,98,EAT                                    DON'T EAT,2086.5708,2064.3857,1869.8481,left,1,left,left,eat,eat,avoid,neg,avoid-neg,1,1,707.5
sub-098,141,2,FALSE,left,avoid,pos,meat35_crop.jpg,2,15,TRUE,140,2,2103.7493,98,EAT                                    DON'T EAT,2102.7175,2098.6973,1869.8481,left,2,right,right,not_eat,not_eat,avoid,pos,avoid-pos,1,1,1031.7999999998137
sub-098,142,2,FALSE,left,avoid,pos,meat38_crop.jpg,2,15,TRUE,141,2,2105.4417,98,EAT                                    DON'T EAT,2104.7358,2098.6973,1869.8481,left,2,right,right,not_eat,not_eat,avoid,pos,avoid-pos,1,1,705.8999999999069
sub-098,143,2,FALSE,left,avoid,pos,meat15_crop.jpg,2,15,TRUE,142,2,2107.3662,98,EAT                                    DON'T EAT,2106.7544,2098.6973,1869.8481,left,2,right,right,not_eat,not_eat,avoid,pos,avoid-pos,1,1,611.7999999998137
sub-098,144,2,TRUE,left,approach,neg,insect27_crop.jpg,2,15,TRUE,143,1,2109.5088,98,EAT                                    DON'T EAT,2108.7727,2098.6973,1869.8481,left,1,left,left,eat,eat,avoid,pos,avoid-pos,1,1,736.1000000000931
sub-098,145,2,FALSE,left,avoid,pos,meat7_crop.jpg,2,15,TRUE,144,2,2111.508,98,EAT                                    DON'T EAT,2110.791,2098.6973,1869.8481,left,2,right,right,not_eat,not_eat,avoid,pos,avoid-pos,1,1,717
sub-098,146,2,FALSE,left,avoid,pos,meat34_crop.jpg,2,15,TRUE,145,2,2113.4292,98,EAT                                    DON'T EAT,2112.8096,2098.6973,1869.8481,left,2,right,right,not_eat,not_eat,avoid,pos,avoid-pos,1,1,619.6000000000931
sub-098,147,2,TRUE,left,approach,pos,cake19_crop.jpg,2,15,TRUE,146,1,2115.6316,98,EAT                                    DON'T EAT,2114.8276,2098.6973,1869.8481,left,1,left,left,eat,eat,avoid,pos,avoid-pos,1,1,804
sub-098,148,2,FALSE,left,avoid,pos,meat26_crop.jpg,2,15,TRUE,147,2,2117.4343,98,EAT                                    DON'T EAT,2116.846,2098.6973,1869.8481,left,2,right,right,not_eat,not_eat,avoid,pos,avoid-pos,1,1,588.2999999998137
sub-098,149,2,FALSE,left,avoid,pos,meat22_crop.jpg,2,15,TRUE,148,2,2119.4993,98,EAT                                    DON'T EAT,2118.8645,2098.6973,1869.8481,left,2,right,right,not_eat,not_eat,avoid,pos,avoid-pos,1,1,634.7999999998137
sub-098,150,2,FALSE,left,avoid,pos,meat24_crop.jpg,2,15,TRUE,149,2,2121.5261,98,EAT                                    DON'T EAT,2120.8828,2098.6973,1869.8481,left,2,right,right,not_eat,not_eat,avoid,pos,avoid-pos,1,1,643.3000000002794
sub-098,151,2,FALSE,right,approach,pos,cake2_crop.jpg,2,16,TRUE,150,1,2138.0745,98,EAT                                    DON'T EAT,2137.263,2133.2427,1869.8481,left,1,left,left,eat,eat,approach,pos,approach-pos,1,1,811.5
sub-098,152,2,TRUE,right,avoid,pos,meat26_crop.jpg,2,16,TRUE,151,2,2139.8503,98,EAT                                    DON'T EAT,2139.2815,2133.2427,1869.8481,left,2,right,right,not_eat,not_eat,approach,pos,approach-pos,1,1,568.8000000002794
sub-098,153,2,FALSE,right,approach,pos,cake24_crop.jpg,2,16,TRUE,152,1,2142.1565,98,EAT                                    DON'T EAT,2141.2996,2133.2427,1869.8481,left,1,left,left,eat,eat,approach,pos,approach-pos,1,1,856.9000000003725
sub-098,154,2,FALSE,right,approach,pos,cake27_crop.jpg,2,16,TRUE,153,1,2143.9197,98,EAT                                    DON'T EAT,2143.3179,2133.2427,1869.8481,left,1,left,left,eat,eat,approach,pos,approach-pos,1,1,601.7999999998137
sub-098,155,2,FALSE,right,approach,pos,cake7_crop.jpg,2,16,TRUE,154,1,2145.8223,98,EAT                                    DON'T EAT,2145.3357,2133.2427,1869.8481,left,1,left,left,eat,eat,approach,pos,approach-pos,1,1,486.59999999962747
sub-098,156,2,FALSE,right,approach,pos,cake29_crop.jpg,2,16,TRUE,155,1,2147.986,98,EAT                                    DON'T EAT,2147.3547,2133.2427,1869.8481,left,1,left,left,eat,eat,approach,pos,approach-pos,1,1,631.3000000002794
sub-098,157,2,FALSE,right,approach,pos,cake6_crop.jpg,2,16,TRUE,156,1,2149.9302,98,EAT                                    DON'T EAT,2149.373,2133.2427,1869.8481,left,1,left,left,eat,eat,approach,pos,approach-pos,1,1,557.1999999997206
sub-098,158,2,TRUE,right,avoid,neg,fungus39_crop.jpg,2,16,TRUE,157,2,2152.118,98,EAT                                    DON'T EAT,2151.3914,2133.2427,1869.8481,left,2,right,right,not_eat,not_eat,approach,pos,approach-pos,1,1,726.6000000000931
sub-098,159,2,FALSE,right,approach,pos,cake21_crop.jpg,2,16,TRUE,158,1,2154.0725,98,EAT                                    DON'T EAT,2153.4097,2133.2427,1869.8481,left,1,left,left,eat,eat,approach,pos,approach-pos,1,1,662.7999999998137
sub-098,160,2,FALSE,right,approach,pos,cake38_crop.jpg,2,16,TRUE,159,1,2156.0183,98,EAT                                    DON'T EAT,2155.428,2133.2427,1869.8481,left,1,left,left,eat,eat,approach,pos,approach-pos,1,1,590.3000000002794
sub-098,161,1,TRUE,left,approach,neg,insect34_crop.jpg,3,17,TRUE,160,1,2267.178,98,EAT                                    DON'T EAT,2266.5037,2262.4834,2249.349,right,1,left,left,eat,eat,avoid,pos,avoid-pos,1,1,674.2999999998137
sub-098,162,1,FALSE,left,avoid,pos,meat25_crop.jpg,3,17,TRUE,161,2,2269.5237,98,EAT                                    DON'T EAT,2268.522,2262.4834,2249.349,right,2,right,right,not_eat,not_eat,avoid,pos,avoid-pos,1,1,1001.7000000001863
sub-098,163,1,FALSE,left,avoid,pos,meat17_crop.jpg,3,17,TRUE,162,2,2271.2773,98,EAT                                    DON'T EAT,2270.5403,2262.4834,2249.349,right,2,right,right,not_eat,not_eat,avoid,pos,avoid-pos,1,1,737
sub-098,164,1,FALSE,left,avoid,pos,meat39_crop.jpg,3,17,TRUE,163,2,2273.2305,98,EAT                                    DON'T EAT,2272.5586,2262.4834,2249.349,right,2,right,right,not_eat,not_eat,avoid,pos,avoid-pos,1,1,671.9000000003725
sub-098,165,1,FALSE,left,avoid,pos,meat2_crop.jpg,3,17,TRUE,164,2,2275.2407,98,EAT                                    DON'T EAT,2274.5771,2262.4834,2249.349,right,2,right,right,not_eat,not_eat,avoid,pos,avoid-pos,1,1,663.5999999996275
sub-098,166,1,TRUE,left,approach,pos,cake16_crop.jpg,3,17,TRUE,165,1,2277.2603,98,EAT                                    DON'T EAT,2276.595,2262.4834,2249.349,right,1,left,left,eat,eat,avoid,pos,avoid-pos,1,1,665.2999999998137
sub-098,167,1,FALSE,left,avoid,pos,meat6_crop.jpg,3,17,TRUE,166,2,2279.3499,98,EAT                                    DON'T EAT,2278.6138,2262.4834,2249.349,right,2,right,right,not_eat,not_eat,avoid,pos,avoid-pos,1,1,736.1000000000931
sub-098,168,1,FALSE,left,avoid,pos,meat27_crop.jpg,3,17,TRUE,167,2,2281.414,98,EAT                                    DON'T EAT,2280.6316,2262.4834,2249.349,right,2,right,right,not_eat,not_eat,avoid,pos,avoid-pos,1,1,782.3999999999069
sub-098,169,1,FALSE,left,avoid,pos,meat29_crop.jpg,3,17,TRUE,168,2,2283.2087,98,EAT                                    DON'T EAT,2282.6504,2262.4834,2249.349,right,2,right,right,not_eat,not_eat,avoid,pos,avoid-pos,1,1,558.3000000002794
sub-098,170,1,FALSE,left,avoid,pos,meat10_crop.jpg,3,17,TRUE,169,2,2285.4688,98,EAT                                    DON'T EAT,2284.6687,2262.4834,2249.349,right,2,right,right,not_eat,not_eat,avoid,pos,avoid-pos,1,1,800.1000000000931
sub-098,171,1,FALSE,right,avoid,neg,fungus34_crop.jpg,3,18,TRUE,170,2,2303.4,98,EAT                                    DON'T EAT,2302.45,2298.4302,2249.349,right,2,right,right,not_eat,not_eat,avoid,neg,avoid-neg,1,1,950
sub-098,172,1,FALSE,right,avoid,neg,fungus16_crop.jpg,3,18,TRUE,171,2,2305.2605,98,EAT                                    DON'T EAT,2304.4685,2298.4302,2249.349,right,2,right,right,not_eat,not_eat,avoid,neg,avoid-neg,1,1,792
sub-098,173,1,FALSE,right,avoid,neg,fungus11_crop.jpg,3,18,TRUE,172,2,2307.109,98,EAT                                    DON'T EAT,2306.4868,2298.4302,2249.349,right,2,right,right,not_eat,not_eat,avoid,neg,avoid-neg,1,1,622.1999999997206
sub-098,174,1,FALSE,right,avoid,neg,fungus7_crop.jpg,3,18,TRUE,173,2,2308.9685,98,EAT                                    DON'T EAT,2308.505,2298.4302,2249.349,right,2,right,right,not_eat,not_eat,avoid,neg,avoid-neg,1,1,463.5
sub-098,175,1,FALSE,right,avoid,neg,fungus29_crop.jpg,3,18,TRUE,174,2,2310.956,98,EAT                                    DON'T EAT,2310.5234,2298.4302,2249.349,right,2,right,right,not_eat,not_eat,avoid,neg,avoid-neg,1,1,432.60000000009313
sub-098,176,1,FALSE,right,avoid,neg,fungus20_crop.jpg,3,18,TRUE,175,2,2313.0364,98,EAT                                    DON'T EAT,2312.542,2298.4302,2249.349,right,2,right,right,not_eat,not_eat,avoid,neg,avoid-neg,1,1,494.39999999990687
sub-098,177,1,TRUE,right,approach,neg,insect5_crop.jpg,3,18,TRUE,176,1,2315.2878,98,EAT                                    DON'T EAT,2314.5603,2298.4302,2249.349,right,1,left,left,eat,eat,avoid,neg,avoid-neg,1,1,727.5
sub-098,178,1,FALSE,right,avoid,neg,fungus27_crop.jpg,3,18,TRUE,177,2,2317.1904,98,EAT                                    DON'T EAT,2316.5784,2298.4302,2249.349,right,2,right,right,not_eat,not_eat,avoid,neg,avoid-neg,1,1,612
sub-098,179,1,FALSE,right,avoid,neg,fungus23_crop.jpg,3,18,TRUE,178,2,2319.41,98,EAT                                    DON'T EAT,2318.597,2298.4302,2249.349,right,2,right,right,not_eat,not_eat,avoid,neg,avoid-neg,1,1,813
sub-098,180,1,TRUE,right,approach,pos,cake33_crop.jpg,3,18,TRUE,179,1,2321.3306,98,EAT                                    DON'T EAT,2320.615,2298.4302,2249.349,right,1,left,left,eat,eat,avoid,neg,avoid-neg,1,1,715.5999999996275
sub-098,181,1,FALSE,right,approach,pos,cake36_crop.jpg,3,19,TRUE,180,1,2339.2517,98,EAT                                    DON'T EAT,2338.3464,2334.3262,2249.349,right,1,left,left,eat,eat,approach,pos,approach-pos,1,1,905.2999999998137
sub-098,182,1,FALSE,right,approach,pos,cake13_crop.jpg,3,19,TRUE,181,1,2340.9463,98,EAT                                    DON'T EAT,2340.365,2334.3262,2249.349,right,1,left,left,eat,eat,approach,pos,approach-pos,1,1,581.3000000002794
sub-098,183,1,TRUE,right,avoid,pos,meat15_crop.jpg,3,19,TRUE,182,1,2342.8806,98,EAT                                    DON'T EAT,2342.3833,2334.3262,2249.349,right,1,left,left,eat,eat,approach,pos,approach-pos,0,0,497.3000000002794
sub-098,184,1,FALSE,right,approach,pos,cake25_crop.jpg,3,19,TRUE,183,1,2345.155,98,EAT                                    DON'T EAT,2344.4016,2334.3262,2249.349,right,1,left,left,eat,eat,approach,pos,approach-pos,1,1,753.3999999999069
sub-098,185,1,FALSE,right,approach,pos,cake18_crop.jpg,3,19,TRUE,184,1,2347.2312,98,EAT                                    DON'T EAT,2346.4197,2334.3262,2249.349,right,1,left,left,eat,eat,approach,pos,approach-pos,1,1,811.5000000004657
sub-098,186,1,TRUE,right,avoid,neg,fungus35_crop.jpg,3,19,TRUE,185,2,2349.1274,98,EAT                                    DON'T EAT,2348.4382,2334.3262,2249.349,right,2,right,right,not_eat,not_eat,approach,pos,approach-pos,1,1,689.1999999997206
sub-098,187,1,FALSE,right,approach,pos,cake16_crop.jpg,3,19,TRUE,186,1,2351.0354,98,EAT                                    DON'T EAT,2350.4565,2334.3262,2249.349,right,1,left,left,eat,eat,approach,pos,approach-pos,1,1,578.9000000003725
sub-098,188,1,FALSE,right,approach,pos,cake20_crop.jpg,3,19,TRUE,187,1,2353.4648,98,EAT                                    DON'T EAT,2352.4749,2334.3262,2249.349,right,1,left,left,eat,eat,approach,pos,approach-pos,1,1,989.8999999999069
sub-098,189,1,FALSE,right,approach,pos,cake12_crop.jpg,3,19,TRUE,188,1,2355.1062,98,EAT                                    DON'T EAT,2354.4934,2334.3262,2249.349,right,1,left,left,eat,eat,approach,pos,approach-pos,1,1,612.8000000002794
sub-098,190,1,FALSE,right,approach,pos,cake15_crop.jpg,3,19,TRUE,189,1,2357.081,98,EAT                                    DON'T EAT,2356.5117,2334.3262,2249.349,right,1,left,left,eat,eat,approach,pos,approach-pos,1,1,569.2999999998137
sub-098,191,2,TRUE,right,approach,neg,insect13_crop.jpg,3,20,TRUE,190,1,2374.8696,98,EAT                                    DON'T EAT,2374.1096,2370.0896,2249.349,right,1,left,left,eat,eat,avoid,neg,avoid-neg,1,1,760.0000000004657
sub-098,192,2,FALSE,right,avoid,neg,fungus19_crop.jpg,3,20,TRUE,191,2,2376.7495,98,EAT                                    DON'T EAT,2376.1277,2370.0896,2249.349,right,2,right,right,not_eat,not_eat,avoid,neg,avoid-neg,1,1,621.7999999998137
sub-098,193,2,FALSE,right,avoid,neg,fungus36_crop.jpg,3,20,TRUE,192,2,2378.7153,98,EAT                                    DON'T EAT,2378.1462,2370.0896,2249.349,right,2,right,right,not_eat,not_eat,avoid,neg,avoid-neg,1,1,569.0999999996275
sub-098,194,2,FALSE,right,avoid,neg,fungus25_crop.jpg,3,20,TRUE,193,2,2380.756,98,EAT                                    DON'T EAT,2380.1643,2370.0896,2249.349,right,2,right,right,not_eat,not_eat,avoid,neg,avoid-neg,1,1,591.7000000001863
sub-098,195,2,FALSE,right,avoid,neg,fungus4_crop.jpg,3,20,TRUE,194,2,2382.7107,98,EAT                                    DON'T EAT,2382.1829,2370.0896,2249.349,right,2,right,right,not_eat,not_eat,avoid,neg,avoid-neg,1,1,527.8000000002794
sub-098,196,2,TRUE,right,approach,pos,cake10_crop.jpg,3,20,TRUE,195,1,2384.7693,98,EAT                                    DON'T EAT,2384.2012,2370.0896,2249.349,right,1,left,left,eat,eat,avoid,neg,avoid-neg,1,1,568.0999999996275
sub-098,197,2,FALSE,right,avoid,neg,fungus32_crop.jpg,3,20,TRUE,196,2,2386.894,98,EAT                                    DON'T EAT,2386.2197,2370.0896,2249.349,right,2,right,right,not_eat,not_eat,avoid,neg,avoid-neg,1,1,674.2999999998137
sub-098,198,2,FALSE,right,avoid,neg,fungus15_crop.jpg,3,20,TRUE,197,2,2388.829,98,EAT                                    DON'T EAT,2388.238,2370.0896,2249.349,right,2,right,right,not_eat,not_eat,avoid,neg,avoid-neg,1,1,591
sub-098,199,2,FALSE,right,avoid,neg,fungus10_crop.jpg,3,20,TRUE,198,2,2390.7502,98,EAT                                    DON'T EAT,2390.2563,2370.0896,2249.349,right,2,right,right,not_eat,not_eat,avoid,neg,avoid-neg,1,1,493.89999999990687
sub-098,200,2,FALSE,right,avoid,neg,fungus38_crop.jpg,3,20,TRUE,199,2,2392.9082,98,EAT                                    DON'T EAT,2392.275,2370.0896,2249.349,right,2,right,right,not_eat,not_eat,avoid,neg,avoid-neg,1,1,633.1999999997206
sub-098,201,2,FALSE,left,avoid,neg,fungus23_crop.jpg,3,21,TRUE,200,2,2411.6282,98,EAT                                    DON'T EAT,2410.89,2406.87,2249.349,right,2,right,right,not_eat,not_eat,avoid,neg,avoid-neg,1,1,738.2000000001863
sub-098,202,2,FALSE,left,avoid,neg,fungus11_crop.jpg,3,21,TRUE,201,2,2413.4775,98,EAT                                    DON'T EAT,2412.9084,2406.87,2249.349,right,2,right,right,not_eat,not_eat,avoid,neg,avoid-neg,1,1,569.1000000000931
sub-098,203,2,FALSE,left,avoid,neg,fungus1_crop.jpg,3,21,TRUE,202,2,2415.6125,98,EAT                                    DON'T EAT,2414.9268,2406.87,2249.349,right,2,right,right,not_eat,not_eat,avoid,neg,avoid-neg,1,1,685.6999999997206
sub-098,204,2,TRUE,left,approach,neg,insect19_crop.jpg,3,21,TRUE,203,1,2417.556,98,EAT                                    DON'T EAT,2416.945,2406.87,2249.349,right,1,left,left,eat,eat,avoid,neg,avoid-neg,1,1,611
sub-098,205,2,FALSE,left,avoid,neg,fungus36_crop.jpg,3,21,TRUE,204,2,2419.533,98,EAT                                    DON'T EAT,2418.9636,2406.87,2249.349,right,2,right,right,not_eat,not_eat,avoid,neg,avoid-neg,1,1,569.3999999999069
sub-098,206,2,FALSE,left,avoid,neg,fungus18_crop.jpg,3,21,TRUE,205,2,2421.658,98,EAT                                    DON'T EAT,2420.9814,2406.87,2249.349,right,2,right,right,not_eat,not_eat,avoid,neg,avoid-neg,1,1,676.6000000000931
sub-098,207,2,FALSE,left,avoid,neg,fungus25_crop.jpg,3,21,TRUE,206,2,2423.5361,98,EAT                                    DON'T EAT,2423.0002,2406.87,2249.349,right,2,right,right,not_eat,not_eat,avoid,neg,avoid-neg,1,1,535.8999999999069
sub-098,208,2,TRUE,left,approach,pos,cake13_crop.jpg,3,21,TRUE,207,1,2425.5674,98,EAT                                    DON'T EAT,2425.0186,2406.87,2249.349,right,1,left,left,eat,eat,avoid,neg,avoid-neg,1,1,548.7999999998137
sub-098,209,2,FALSE,left,avoid,neg,fungus13_crop.jpg,3,21,TRUE,208,2,2427.6482,98,EAT                                    DON'T EAT,2427.0369,2406.87,2249.349,right,2,right,right,not_eat,not_eat,avoid,neg,avoid-neg,1,1,611.3000000002794
sub-098,210,2,FALSE,left,avoid,neg,fungus39_crop.jpg,3,21,TRUE,209,2,2429.6348,98,EAT                                    DON'T EAT,2429.055,2406.87,2249.349,right,2,right,right,not_eat,not_eat,avoid,neg,avoid-neg,1,1,579.7999999998137
sub-098,211,2,FALSE,left,approach,pos,cake3_crop.jpg,3,22,TRUE,210,1,2450.0212,98,EAT                                    DON'T EAT,2448.9883,2444.968,2249.349,right,1,left,left,eat,eat,approach,pos,approach-pos,1,1,1032.9000000003725
sub-098,212,2,FALSE,left,approach,pos,cake1_crop.jpg,3,22,TRUE,211,1,2451.5967,98,EAT                                    DON'T EAT,2451.0066,2444.968,2249.349,right,1,left,left,eat,eat,approach,pos,approach-pos,1,1,590.1000000000931
sub-098,213,2,FALSE,left,approach,pos,cake38_crop.jpg,3,22,TRUE,212,1,2453.5298,98,EAT                                    DON'T EAT,2453.0251,2444.968,2249.349,right,1,left,left,eat,eat,approach,pos,approach-pos,1,1,504.70000000018626
sub-098,214,2,TRUE,left,avoid,neg,fungus3_crop.jpg,3,22,TRUE,213,2,2455.5815,98,EAT                                    DON'T EAT,2455.0435,2444.968,2249.349,right,2,right,right,not_eat,not_eat,approach,pos,approach-pos,1,1,538
sub-098,215,2,TRUE,left,avoid,pos,meat40_crop.jpg,3,22,TRUE,214,2,2457.7175,98,EAT                                    DON'T EAT,2457.0618,2444.968,2249.349,right,2,right,right,not_eat,not_eat,approach,pos,approach-pos,1,1,655.7000000001863
sub-098,216,2,FALSE,left,approach,pos,cake11_crop.jpg,3,22,TRUE,215,1,2459.6938,98,EAT                                    DON'T EAT,2459.0803,2444.968,2249.349,right,1,left,left,eat,eat,approach,pos,approach-pos,1,1,613.4999999995343
sub-098,217,2,FALSE,left,approach,pos,cake35_crop.jpg,3,22,TRUE,216,2,2461.5652,98,EAT                                    DON'T EAT,2461.0984,2444.968,2249.349,right,2,right,right,not_eat,not_eat,approach,pos,approach-pos,0,0,466.8000000002794
sub-098,218,2,FALSE,left,approach,pos,cake20_crop.jpg,3,22,TRUE,217,1,2463.7705,98,EAT                                    DON'T EAT,2463.1167,2444.968,2249.349,right,1,left,left,eat,eat,approach,pos,approach-pos,1,1,653.7999999998137
sub-098,219,2,FALSE,left,approach,pos,cake24_crop.jpg,3,22,TRUE,218,1,2465.6494,98,EAT                                    DON'T EAT,2465.135,2444.968,2249.349,right,1,left,left,eat,eat,approach,pos,approach-pos,1,1,514.3999999999069
sub-098,220,2,FALSE,left,approach,pos,cake12_crop.jpg,3,22,TRUE,219,1,2467.7637,98,EAT                                    DON'T EAT,2467.1536,2444.968,2249.349,right,1,left,left,eat,eat,approach,pos,approach-pos,1,1,610.1000000000931
sub-098,221,3,TRUE,left,approach,pos,cake7_crop.jpg,3,23,TRUE,220,1,2484.8845,98,EAT                                    DON'T EAT,2484.251,2480.2307,2249.349,right,1,left,left,eat,eat,avoid,pos,avoid-pos,1,1,633.5
sub-098,222,3,FALSE,left,avoid,pos,meat1_crop.jpg,3,23,TRUE,221,2,2487.101,98,EAT                                    DON'T EAT,2486.2693,2480.2307,2249.349,right,2,right,right,not_eat,not_eat,avoid,pos,avoid-pos,1,1,831.7000000001863
sub-098,223,3,FALSE,left,avoid,pos,meat18_crop.jpg,3,23,TRUE,222,2,2489.131,98,EAT                                    DON'T EAT,2488.2876,2480.2307,2249.349,right,2,right,right,not_eat,not_eat,avoid,pos,avoid-pos,1,1,843.3999999999069
sub-098,224,3,FALSE,left,avoid,pos,meat14_crop.jpg,3,23,TRUE,223,2,2491.065,98,EAT                                    DON'T EAT,2490.3057,2480.2307,2249.349,right,2,right,right,not_eat,not_eat,avoid,pos,avoid-pos,1,1,759.3000000002794
sub-098,225,3,FALSE,left,avoid,pos,meat23_crop.jpg,3,23,TRUE,224,2,2493.0525,98,EAT                                    DON'T EAT,2492.3245,2480.2307,2249.349,right,2,right,right,not_eat,not_eat,avoid,pos,avoid-pos,1,1,728
sub-098,226,3,FALSE,left,avoid,pos,meat4_crop.jpg,3,23,TRUE,225,2,2495.1123,98,EAT                                    DON'T EAT,2494.3428,2480.2307,2249.349,right,2,right,right,not_eat,not_eat,avoid,pos,avoid-pos,1,1,769.5
sub-098,227,3,FALSE,left,avoid,pos,meat3_crop.jpg,3,23,TRUE,226,2,2497.0488,98,EAT                                    DON'T EAT,2496.3613,2480.2307,2249.349,right,2,right,right,not_eat,not_eat,avoid,pos,avoid-pos,1,1,687.5
sub-098,228,3,FALSE,left,avoid,pos,meat21_crop.jpg,3,23,TRUE,227,2,2498.9585,98,EAT                                    DON'T EAT,2498.3792,2480.2307,2249.349,right,2,right,right,not_eat,not_eat,avoid,pos,avoid-pos,1,1,579.3000000002794
sub-098,229,3,FALSE,left,avoid,pos,meat19_crop.jpg,3,23,TRUE,228,2,2500.9072,98,EAT                                    DON'T EAT,2500.3977,2480.2307,2249.349,right,2,right,right,not_eat,not_eat,avoid,pos,avoid-pos,1,1,509.5
sub-098,230,3,TRUE,left,approach,neg,insect2_crop.jpg,3,23,TRUE,229,1,2503.0583,98,EAT                                    DON'T EAT,2502.4163,2480.2307,2249.349,right,1,left,left,eat,eat,avoid,pos,avoid-pos,1,1,642.0000000004657
sub-098,231,1,TRUE,left,avoid,neg,fungus5_crop.jpg,3,24,TRUE,230,2,2520.3752,98,EAT                                    DON'T EAT,2519.6638,2515.6438,2249.349,right,2,right,right,not_eat,not_eat,approach,pos,approach-pos,1,1,711.3999999999069
sub-098,232,1,FALSE,left,approach,pos,cake28_crop.jpg,3,24,TRUE,231,1,2522.3252,98,EAT                                    DON'T EAT,2521.682,2515.6438,2249.349,right,1,left,left,eat,eat,approach,pos,approach-pos,1,1,643.2000000001863
sub-098,233,1,FALSE,left,approach,pos,cake22_crop.jpg,3,24,TRUE,232,1,2524.344,98,EAT                                    DON'T EAT,2523.7004,2515.6438,2249.349,right,1,left,left,eat,eat,approach,pos,approach-pos,1,1,643.5999999996275
sub-098,234,1,FALSE,left,approach,pos,cake2_crop.jpg,3,24,TRUE,233,1,2526.3196,98,EAT                                    DON'T EAT,2525.7188,2515.6438,2249.349,right,1,left,left,eat,eat,approach,pos,approach-pos,1,1,600.7999999993481
sub-098,235,1,TRUE,left,avoid,pos,meat11_crop.jpg,3,24,TRUE,234,2,2528.3896,98,EAT                                    DON'T EAT,2527.737,2515.6438,2249.349,right,2,right,right,not_eat,not_eat,approach,pos,approach-pos,1,1,652.6000000000931
sub-098,236,1,FALSE,left,approach,pos,cake40_crop.jpg,3,24,TRUE,235,1,2530.3584,98,EAT                                    DON'T EAT,2529.7556,2515.6438,2249.349,right,1,left,left,eat,eat,approach,pos,approach-pos,1,1,602.7999999998137
sub-098,237,1,FALSE,left,approach,pos,cake32_crop.jpg,3,24,TRUE,236,1,2532.6794,98,EAT                                    DON'T EAT,2531.774,2515.6438,2249.349,right,1,left,left,eat,eat,approach,pos,approach-pos,1,1,905.3999999999069
sub-098,238,1,FALSE,left,approach,pos,cake6_crop.jpg,3,24,TRUE,237,1,2534.8481,98,EAT                                    DON'T EAT,2533.7922,2515.6438,2249.349,right,1,left,left,eat,eat,approach,pos,approach-pos,1,1,1055.9000000003725
sub-098,239,1,FALSE,left,approach,pos,cake33_crop.jpg,3,24,TRUE,238,1,2536.4111,98,EAT                                    DON'T EAT,2535.8105,2515.6438,2249.349,right,1,left,left,eat,eat,approach,pos,approach-pos,1,1,600.5999999996275
sub-098,240,1,FALSE,left,approach,pos,cake8_crop.jpg,3,24,TRUE,239,1,2538.441,98,EAT                                    DON'T EAT,2537.8289,2515.6438,2249.349,right,1,left,left,eat,eat,approach,pos,approach-pos,1,1,612.1000000000931
sub-098,241,3,FALSE,left,approach,pos,cake36_crop.jpg,4,25,TRUE,240,1,2629.2583,98,EAT                                    DON'T EAT,2628.721,2624.7007,2613.177,left,1,left,left,eat,eat,approach,pos,approach-pos,1,1,537.2999999998137
sub-098,242,3,TRUE,left,avoid,neg,fungus17_crop.jpg,4,25,TRUE,241,2,2631.5085,98,EAT                                    DON'T EAT,2630.7393,2624.7007,2613.177,left,2,right,right,not_eat,not_eat,approach,pos,approach-pos,1,1,769.1999999997206
sub-098,243,3,FALSE,left,approach,pos,cake30_crop.jpg,4,25,TRUE,242,1,2633.4524,98,EAT                                    DON'T EAT,2632.7573,2624.7007,2613.177,left,1,left,left,eat,eat,approach,pos,approach-pos,1,1,695.0999999996275
sub-098,244,3,FALSE,left,approach,pos,cake9_crop.jpg,4,25,TRUE,243,1,2635.356,98,EAT                                    DON'T EAT,2634.776,2624.7007,2613.177,left,1,left,left,eat,eat,approach,pos,approach-pos,1,1,580
sub-098,245,3,TRUE,left,avoid,pos,meat36_crop.jpg,4,25,TRUE,244,1,2637.2695,98,EAT                                    DON'T EAT,2636.7944,2624.7007,2613.177,left,1,left,left,eat,eat,approach,pos,approach-pos,0,0,475.09999999962747
sub-098,246,3,FALSE,left,approach,pos,cake37_crop.jpg,4,25,TRUE,245,1,2639.4553,98,EAT                                    DON'T EAT,2638.8127,2624.7007,2613.177,left,1,left,left,eat,eat,approach,pos,approach-pos,1,1,642.6000000005588
sub-098,247,3,FALSE,left,approach,pos,cake29_crop.jpg,4,25,TRUE,246,1,2641.42,98,EAT                                    DON'T EAT,2640.831,2624.7007,2613.177,left,1,left,left,eat,eat,approach,pos,approach-pos,1,1,589
sub-098,248,3,FALSE,left,approach,pos,cake27_crop.jpg,4,25,TRUE,247,1,2643.3733,98,EAT                                    DON'T EAT,2642.8489,2624.7007,2613.177,left,1,left,left,eat,eat,approach,pos,approach-pos,1,1,524.4000000003725
sub-098,249,3,FALSE,left,approach,pos,cake10_crop.jpg,4,25,TRUE,248,1,2645.4463,98,EAT                                    DON'T EAT,2644.8677,2624.7007,2613.177,left,1,left,left,eat,eat,approach,pos,approach-pos,1,1,578.6000000005588
sub-098,250,3,FALSE,left,approach,pos,cake21_crop.jpg,4,25,TRUE,249,1,2647.4543,98,EAT                                    DON'T EAT,2646.886,2624.7007,2613.177,left,1,left,left,eat,eat,approach,pos,approach-pos,1,1,568.2999999998137
sub-098,251,3,FALSE,right,approach,neg,insect21_crop.jpg,4,26,TRUE,250,1,2664.0693,98,EAT                                    DON'T EAT,2663.1829,2659.1628,2613.177,left,1,left,left,eat,eat,approach,neg,approach-neg,1,1,886.4000000003725
sub-098,252,3,FALSE,right,approach,neg,insect38_crop.jpg,4,26,TRUE,251,1,2665.8762,98,EAT                                    DON'T EAT,2665.2014,2659.1628,2613.177,left,1,left,left,eat,eat,approach,neg,approach-neg,1,1,674.8000000002794
sub-098,253,3,FALSE,right,approach,neg,insect33_crop.jpg,4,26,TRUE,252,1,2667.86,98,EAT                                    DON'T EAT,2667.2197,2659.1628,2613.177,left,1,left,left,eat,eat,approach,neg,approach-neg,1,1,640.2999999998137
sub-098,254,3,FALSE,right,approach,neg,insect18_crop.jpg,4,26,TRUE,253,1,2669.8396,98,EAT                                    DON'T EAT,2669.2378,2659.1628,2613.177,left,1,left,left,eat,eat,approach,neg,approach-neg,1,1,601.7999999998137
sub-098,255,3,FALSE,right,approach,neg,insect15_crop.jpg,4,26,TRUE,254,1,2671.7505,98,EAT                                    DON'T EAT,2671.2563,2659.1628,2613.177,left,1,left,left,eat,eat,approach,neg,approach-neg,1,1,494.20000000018626
sub-098,256,3,TRUE,right,avoid,pos,meat32_crop.jpg,4,26,TRUE,255,2,2673.9285,98,EAT                                    DON'T EAT,2673.2747,2659.1628,2613.177,left,2,right,right,not_eat,not_eat,approach,neg,approach-neg,1,1,653.8000000002794
sub-098,257,3,FALSE,right,approach,neg,insect22_crop.jpg,4,26,TRUE,256,1,2676.062,98,EAT                                    DON'T EAT,2675.293,2659.1628,2613.177,left,1,left,left,eat,eat,approach,neg,approach-neg,1,1,769
sub-098,258,3,TRUE,right,avoid,neg,fungus2_crop.jpg,4,26,TRUE,257,2,2678.0598,98,EAT                                    DON'T EAT,2677.3113,2659.1628,2613.177,left,2,right,right,not_eat,not_eat,approach,neg,approach-neg,1,1,748.5
sub-098,259,3,FALSE,right,approach,neg,insect34_crop.jpg,4,26,TRUE,258,1,2680.005,98,EAT                                    DON'T EAT,2679.3296,2659.1628,2613.177,left,1,left,left,eat,eat,approach,neg,approach-neg,1,1,675.3999999999069
sub-098,260,3,FALSE,right,approach,neg,insect30_crop.jpg,4,26,TRUE,259,1,2682.0012,98,EAT                                    DON'T EAT,2681.348,2659.1628,2613.177,left,1,left,left,eat,eat,approach,neg,approach-neg,1,1,653.2000000001863
sub-098,261,3,FALSE,right,avoid,neg,fungus33_crop.jpg,4,27,TRUE,260,2,2699.3064,98,EAT                                    DON'T EAT,2698.5122,2694.4922,2613.177,left,2,right,right,not_eat,not_eat,avoid,neg,avoid-neg,1,1,794.1999999997206
sub-098,262,3,FALSE,right,avoid,neg,fungus26_crop.jpg,4,27,TRUE,261,2,2701.278,98,EAT                                    DON'T EAT,2700.5305,2694.4922,2613.177,left,2,right,right,not_eat,not_eat,avoid,neg,avoid-neg,1,1,747.5
sub-098,263,3,FALSE,right,avoid,neg,fungus3_crop.jpg,4,27,TRUE,262,2,2703.3079,98,EAT                                    DON'T EAT,2702.5488,2694.4922,2613.177,left,2,right,right,not_eat,not_eat,avoid,neg,avoid-neg,1,1,759.1000000000931
sub-098,264,3,FALSE,right,avoid,neg,fungus1_crop.jpg,4,27,TRUE,263,2,2705.1377,98,EAT                                    DON'T EAT,2704.5671,2694.4922,2613.177,left,2,right,right,not_eat,not_eat,avoid,neg,avoid-neg,1,1,570.6000000000931
sub-098,265,3,FALSE,right,avoid,neg,fungus12_crop.jpg,4,27,TRUE,264,2,2707.2278,98,EAT                                    DON'T EAT,2706.5854,2694.4922,2613.177,left,2,right,right,not_eat,not_eat,avoid,neg,avoid-neg,1,1,642.4000000003725
sub-098,266,3,FALSE,right,avoid,neg,fungus22_crop.jpg,4,27,TRUE,265,2,2709.1711,98,EAT                                    DON'T EAT,2708.604,2694.4922,2613.177,left,2,right,right,not_eat,not_eat,avoid,neg,avoid-neg,1,1,567.1000000000931
sub-098,267,3,TRUE,right,approach,neg,insect9_crop.jpg,4,27,TRUE,266,1,2711.318,98,EAT                                    DON'T EAT,2710.6223,2694.4922,2613.177,left,1,left,left,eat,eat,avoid,neg,avoid-neg,1,1,695.7000000001863
sub-098,268,3,FALSE,right,avoid,neg,fungus5_crop.jpg,4,27,TRUE,267,2,2713.4,98,EAT                                    DON'T EAT,2712.6406,2694.4922,2613.177,left,2,right,right,not_eat,not_eat,avoid,neg,avoid-neg,1,1,759.3999999999069
sub-098,269,3,TRUE,right,approach,pos,cake8_crop.jpg,4,27,TRUE,268,1,2715.4072,98,EAT                                    DON'T EAT,2714.659,2694.4922,2613.177,left,1,left,left,eat,eat,avoid,neg,avoid-neg,1,1,748.2000000001863
sub-098,270,3,FALSE,right,avoid,neg,fungus13_crop.jpg,4,27,TRUE,269,2,2717.5632,98,EAT                                    DON'T EAT,2716.6772,2694.4922,2613.177,left,2,right,right,not_eat,not_eat,avoid,neg,avoid-neg,1,1,886
sub-098,271,3,FALSE,left,avoid,neg,fungus10_crop.jpg,4,28,TRUE,270,2,2736.8909,98,EAT                                    DON'T EAT,2736.227,2732.2068,2613.177,left,2,right,right,not_eat,not_eat,avoid,neg,avoid-neg,1,1,663.8999999999069
sub-098,272,3,FALSE,left,avoid,neg,fungus2_crop.jpg,4,28,TRUE,271,2,2738.8674,98,EAT                                    DON'T EAT,2738.2449,2732.2068,2613.177,left,2,right,right,not_eat,not_eat,avoid,neg,avoid-neg,1,1,622.4999999995343
sub-098,273,3,TRUE,left,approach,neg,insect17_crop.jpg,4,28,TRUE,272,1,2740.869,98,EAT                                    DON'T EAT,2740.264,2732.2068,2613.177,left,1,left,left,eat,eat,avoid,neg,avoid-neg,1,1,605
sub-098,274,3,FALSE,left,avoid,neg,fungus24_crop.jpg,4,28,TRUE,273,2,2742.935,98,EAT                                    DON'T EAT,2742.2815,2732.2068,2613.177,left,2,right,right,not_eat,not_eat,avoid,neg,avoid-neg,1,1,653.5
sub-098,275,3,FALSE,left,avoid,neg,fungus22_crop.jpg,4,28,TRUE,274,2,2744.91,98,EAT                                    DON'T EAT,2744.3003,2732.2068,2613.177,left,2,right,right,not_eat,not_eat,avoid,neg,avoid-neg,1,1,609.7000000001863
sub-098,276,3,TRUE,left,approach,pos,cake5_crop.jpg,4,28,TRUE,275,1,2746.941,98,EAT                                    DON'T EAT,2746.3186,2732.2068,2613.177,left,1,left,left,eat,eat,avoid,neg,avoid-neg,1,1,622.3999999999069
sub-098,277,3,FALSE,left,avoid,neg,fungus30_crop.jpg,4,28,TRUE,276,2,2749.0112,98,EAT                                    DON'T EAT,2748.337,2732.2068,2613.177,left,2,right,right,not_eat,not_eat,avoid,neg,avoid-neg,1,1,674.1999999997206
sub-098,278,3,FALSE,left,avoid,neg,fungus38_crop.jpg,4,28,TRUE,277,2,2750.9473,98,EAT                                    DON'T EAT,2750.3547,2732.2068,2613.177,left,2,right,right,not_eat,not_eat,avoid,neg,avoid-neg,1,1,592.6000000000931
sub-098,279,3,FALSE,left,avoid,neg,fungus20_crop.jpg,4,28,TRUE,278,2,2752.9932,98,EAT                                    DON'T EAT,2752.3735,2732.2068,2613.177,left,2,right,right,not_eat,not_eat,avoid,neg,avoid-neg,1,1,619.6999999997206
sub-098,280,3,FALSE,left,avoid,neg,fungus28_crop.jpg,4,28,TRUE,279,2,2754.9617,98,EAT                                    DON'T EAT,2754.392,2732.2068,2613.177,left,2,right,right,not_eat,not_eat,avoid,neg,avoid-neg,1,1,569.6999999997206
sub-098,281,1,FALSE,right,avoid,pos,meat2_crop.jpg,4,29,TRUE,280,2,2774.1082,98,EAT                                    DON'T EAT,2773.191,2769.1707,2613.177,left,2,right,right,not_eat,not_eat,avoid,pos,avoid-pos,1,1,917.2000000001863
sub-098,282,1,TRUE,right,approach,pos,cake30_crop.jpg,4,29,TRUE,281,1,2775.906,98,EAT                                    DON'T EAT,2775.2092,2769.1707,2613.177,left,1,left,left,eat,eat,avoid,pos,avoid-pos,1,1,696.8000000002794
sub-098,283,1,FALSE,right,avoid,pos,meat33_crop.jpg,4,29,TRUE,282,2,2777.8398,98,EAT                                    DON'T EAT,2777.2275,2769.1707,2613.177,left,2,right,right,not_eat,not_eat,avoid,pos,avoid-pos,1,1,612.3000000002794
sub-098,284,1,FALSE,right,avoid,pos,meat9_crop.jpg,4,29,TRUE,283,2,2779.9504,98,EAT                                    DON'T EAT,2779.2458,2769.1707,2613.177,left,2,right,right,not_eat,not_eat,avoid,pos,avoid-pos,1,1,704.6000000000931
sub-098,285,1,FALSE,right,avoid,pos,meat22_crop.jpg,4,29,TRUE,284,2,2782.1294,98,EAT                                    DON'T EAT,2781.2644,2769.1707,2613.177,left,2,right,right,not_eat,not_eat,avoid,pos,avoid-pos,1,1,865
sub-098,286,1,FALSE,right,avoid,pos,meat30_crop.jpg,4,29,TRUE,285,2,2784.032,98,EAT                                    DON'T EAT,2783.2825,2769.1707,2613.177,left,2,right,right,not_eat,not_eat,avoid,pos,avoid-pos,1,1,749.5
sub-098,287,1,FALSE,right,avoid,pos,meat17_crop.jpg,4,29,TRUE,286,2,2785.9739,98,EAT                                    DON'T EAT,2785.3008,2769.1707,2613.177,left,2,right,right,not_eat,not_eat,avoid,pos,avoid-pos,1,1,673.1000000000931
sub-098,288,1,FALSE,right,avoid,pos,meat34_crop.jpg,4,29,TRUE,287,2,2787.9604,98,EAT                                    DON'T EAT,2787.319,2769.1707,2613.177,left,2,right,right,not_eat,not_eat,avoid,pos,avoid-pos,1,1,641.3999999999069
sub-098,289,1,FALSE,right,avoid,pos,meat36_crop.jpg,4,29,TRUE,288,2,2789.8638,98,EAT                                    DON'T EAT,2789.3374,2769.1707,2613.177,left,2,right,right,not_eat,not_eat,avoid,pos,avoid-pos,1,1,526.4000000003725
sub-098,290,1,TRUE,right,approach,neg,insect31_crop.jpg,4,29,TRUE,289,1,2792.0369,98,EAT                                    DON'T EAT,2791.3555,2769.1707,2613.177,left,1,left,left,eat,eat,avoid,pos,avoid-pos,1,1,681.3999999999069
sub-098,291,0,TRUE,left,approach,pos,cake15_crop.jpg,4,30,TRUE,290,1,2811.269,98,EAT                                    DON'T EAT,2810.488,2806.4685,2613.177,left,1,left,left,eat,eat,avoid,neg,avoid-neg,1,1,781
sub-098,292,0,FALSE,left,avoid,neg,fungus40_crop.jpg,4,30,TRUE,291,2,2813.1912,98,EAT                                    DON'T EAT,2812.5068,2806.4685,2613.177,left,2,right,right,not_eat,not_eat,avoid,neg,avoid-neg,1,1,684.3999999999069
sub-098,293,0,FALSE,left,avoid,neg,fungus4_crop.jpg,4,30,TRUE,292,2,2815.1997,98,EAT                                    DON'T EAT,2814.525,2806.4685,2613.177,left,2,right,right,not_eat,not_eat,avoid,neg,avoid-neg,1,1,674.7000000001863
sub-098,294,0,FALSE,left,avoid,neg,fungus34_crop.jpg,4,30,TRUE,293,2,2817.452,98,EAT                                    DON'T EAT,2816.5435,2806.4685,2613.177,left,2,right,right,not_eat,not_eat,avoid,neg,avoid-neg,1,1,908.5
sub-098,295,0,FALSE,left,avoid,neg,fungus9_crop.jpg,4,30,TRUE,294,2,2819.1338,98,EAT                                    DON'T EAT,2818.562,2806.4685,2613.177,left,2,right,right,not_eat,not_eat,avoid,neg,avoid-neg,1,1,571.8000000002794
sub-098,296,0,FALSE,left,avoid,neg,fungus6_crop.jpg,4,30,TRUE,295,2,2821.192,98,EAT                                    DON'T EAT,2820.5803,2806.4685,2613.177,left,2,right,right,not_eat,not_eat,avoid,neg,avoid-neg,1,1,611.6999999997206
sub-098,297,0,FALSE,left,avoid,neg,fungus31_crop.jpg,4,30,TRUE,296,2,2823.2014,98,EAT                                    DON'T EAT,2822.5986,2806.4685,2613.177,left,2,right,right,not_eat,not_eat,avoid,neg,avoid-neg,1,1,602.8000000002794
sub-098,298,0,FALSE,left,avoid,neg,fungus8_crop.jpg,4,30,TRUE,297,2,2825.176,98,EAT                                    DON'T EAT,2824.617,2806.4685,2613.177,left,2,right,right,not_eat,not_eat,avoid,neg,avoid-neg,1,1,559
sub-098,299,0,FALSE,left,avoid,neg,fungus27_crop.jpg,4,30,TRUE,298,2,2827.2268,98,EAT                                    DON'T EAT,2826.635,2806.4685,2613.177,left,2,right,right,not_eat,not_eat,avoid,neg,avoid-neg,1,1,591.7999999998137
sub-098,300,0,TRUE,left,approach,neg,insect21_crop.jpg,4,30,TRUE,299,1,2829.3494,98,EAT                                    DON'T EAT,2828.6536,2806.4685,2613.177,left,1,left,left,eat,eat,avoid,neg,avoid-neg,1,1,695.7999999998137
sub-098,301,0,TRUE,right,avoid,pos,meat5_crop.jpg,4,31,TRUE,300,2,2846.3284,98,EAT                                    DON'T EAT,2845.601,2841.581,2613.177,left,2,right,right,not_eat,not_eat,approach,neg,approach-neg,1,1,727.3999999999069
sub-098,302,0,FALSE,right,approach,neg,insect20_crop.jpg,4,31,TRUE,301,1,2848.2517,98,EAT                                    DON'T EAT,2847.6194,2841.581,2613.177,left,1,left,left,eat,eat,approach,neg,approach-neg,1,1,632.2999999998137
sub-098,303,0,FALSE,right,approach,neg,insect36_crop.jpg,4,31,TRUE,302,1,2850.1975,98,EAT                                    DON'T EAT,2849.6377,2841.581,2613.177,left,1,left,left,eat,eat,approach,neg,approach-neg,1,1,559.7999999998137
sub-098,304,0,TRUE,right,avoid,neg,fungus17_crop.jpg,4,31,TRUE,303,2,2852.3398,98,EAT                                    DON'T EAT,2851.656,2841.581,2613.177,left,2,right,right,not_eat,not_eat,approach,neg,approach-neg,1,1,683.8000000002794
sub-098,305,0,FALSE,right,approach,neg,insect12_crop.jpg,4,31,TRUE,304,1,2854.4106,98,EAT                                    DON'T EAT,2853.6746,2841.581,2613.177,left,1,left,left,eat,eat,approach,neg,approach-neg,1,1,736.0000000004657
sub-098,306,0,FALSE,right,approach,neg,insect4_crop.jpg,4,31,TRUE,305,1,2856.3455,98,EAT                                    DON'T EAT,2855.6929,2841.581,2613.177,left,1,left,left,eat,eat,approach,neg,approach-neg,1,1,652.6000000000931
sub-098,307,0,FALSE,right,approach,neg,insect19_crop.jpg,4,31,TRUE,306,1,2858.2227,98,EAT                                    DON'T EAT,2857.711,2841.581,2613.177,left,1,left,left,eat,eat,approach,neg,approach-neg,1,1,511.6999999997206
sub-098,308,0,FALSE,right,approach,neg,insect26_crop.jpg,4,31,TRUE,307,1,2860.3098,98,EAT                                    DON'T EAT,2859.7295,2841.581,2613.177,left,1,left,left,eat,eat,approach,neg,approach-neg,1,1,580.2999999998137
sub-098,309,0,FALSE,right,approach,neg,insect2_crop.jpg,4,31,TRUE,308,1,2862.297,98,EAT                                    DON'T EAT,2861.7478,2841.581,2613.177,left,1,left,left,eat,eat,approach,neg,approach-neg,1,1,549.1999999997206
sub-098,310,0,FALSE,right,approach,neg,insect25_crop.jpg,4,31,TRUE,309,1,2864.3145,98,EAT                                    DON'T EAT,2863.766,2841.581,2613.177,left,1,left,left,eat,eat,approach,neg,approach-neg,1,1,548.5
sub-098,311,3,FALSE,right,approach,pos,cake17_crop.jpg,4,32,TRUE,310,1,2881.7188,98,EAT                                    DON'T EAT,2880.8635,2876.8438,2613.177,left,1,left,left,eat,eat,approach,pos,approach-pos,1,1,855.3000000002794
sub-098,312,3,TRUE,right,avoid,pos,meat18_crop.jpg,4,32,TRUE,311,2,2883.6514,98,EAT                                    DON'T EAT,2882.882,2876.8438,2613.177,left,2,right,right,not_eat,not_eat,approach,pos,approach-pos,1,1,769.4000000003725
sub-098,313,3,FALSE,right,approach,pos,cake22_crop.jpg,4,32,TRUE,312,1,2885.4902,98,EAT                                    DON'T EAT,2884.9001,2876.8438,2613.177,left,1,left,left,eat,eat,approach,pos,approach-pos,1,1,590.1000000005588
sub-098,314,3,FALSE,right,approach,pos,cake28_crop.jpg,4,32,TRUE,313,1,2887.5835,98,EAT                                    DON'T EAT,2886.9185,2876.8438,2613.177,left,1,left,left,eat,eat,approach,pos,approach-pos,1,1,665
sub-098,315,3,FALSE,right,approach,pos,cake4_crop.jpg,4,32,TRUE,314,1,2889.6335,98,EAT                                    DON'T EAT,2888.937,2876.8438,2613.177,left,1,left,left,eat,eat,approach,pos,approach-pos,1,1,696.5
sub-098,316,3,TRUE,right,avoid,neg,fungus9_crop.jpg,4,32,TRUE,315,2,2891.6702,98,EAT                                    DON'T EAT,2890.955,2876.8438,2613.177,left,2,right,right,not_eat,not_eat,approach,pos,approach-pos,1,1,715.2000000001863
sub-098,317,3,FALSE,right,approach,pos,cake32_crop.jpg,4,32,TRUE,316,1,2893.8374,98,EAT                                    DON'T EAT,2892.9739,2876.8438,2613.177,left,1,left,left,eat,eat,approach,pos,approach-pos,1,1,863.5
sub-098,318,3,FALSE,right,approach,pos,cake39_crop.jpg,4,32,TRUE,317,1,2895.6245,98,EAT                                    DON'T EAT,2894.992,2876.8438,2613.177,left,1,left,left,eat,eat,approach,pos,approach-pos,1,1,632.5
sub-098,319,3,FALSE,right,approach,pos,cake26_crop.jpg,4,32,TRUE,318,1,2897.6106,98,EAT                                    DON'T EAT,2897.0103,2876.8438,2613.177,left,1,left,left,eat,eat,approach,pos,approach-pos,1,1,600.3000000002794
sub-098,320,3,FALSE,right,approach,pos,cake19_crop.jpg,4,32,TRUE,319,1,2899.6497,98,EAT                                    DON'T EAT,2899.0286,2876.8438,2613.177,left,1,left,left,eat,eat,approach,pos,approach-pos,1,1,621.0999999996275
