TrialNumber,n_block,catch,hand,mot,val,stim_name,run_number,num_block,ran,order,response,RT,Subject number,n_b,left_side_resp_label,trial_onset,blk_instr_onset,baseline_onset
1,3,True,right,avoid,neg,fungus9_crop.jpg,1,1,1.0,0.0,2,1334.3531,108.0,1.0,EAT                                    DON'T EAT,1332.3625,1328.3423,1317.297
2,3,False,right,approach,pos,cake26_crop.jpg,1,1,1.0,1.0,1,1335.7784,108.0,1.0,EAT                                    DON'T EAT,1334.3805,1328.3423,1317.297
3,3,False,right,approach,pos,cake31_crop.jpg,1,1,1.0,2.0,1,1337.1768,108.0,1.0,EAT                                    DON'T EAT,1336.3987,1328.3423,1317.297
4,3,False,right,approach,pos,cake4_crop.jpg,1,1,1.0,3.0,1,1339.2307,108.0,1.0,EAT                                    DON'T EAT,1338.4203,1328.3423,1317.297
5,3,False,right,approach,pos,cake9_crop.jpg,1,1,1.0,4.0,1,1341.2172,108.0,1.0,EAT                                    DON'T EAT,1340.438,1328.3423,1317.297
6,3,False,right,approach,pos,cake36_crop.jpg,1,1,1.0,5.0,1,1343.2549,108.0,1.0,EAT                                    DON'T EAT,1342.454,1328.3423,1317.297
7,3,False,right,approach,pos,cake20_crop.jpg,1,1,1.0,6.0,1,1345.2638,108.0,1.0,EAT                                    DON'T EAT,1344.4724,1328.3423,1317.297
8,3,True,right,avoid,pos,meat10_crop.jpg,1,1,1.0,7.0,2,1347.5464,108.0,1.0,EAT                                    DON'T EAT,1346.4906,1328.3423,1317.297
9,3,False,right,approach,pos,cake13_crop.jpg,1,1,1.0,8.0,1,1349.4357,108.0,1.0,EAT                                    DON'T EAT,1348.509,1328.3423,1317.297
10,3,False,right,approach,pos,cake12_crop.jpg,1,1,1.0,9.0,1,1351.8242,108.0,1.0,EAT                                    DON'T EAT,1350.5275,1328.3423,1317.297
11,0,False,left,approach,pos,cake19_crop.jpg,1,2,1.0,10.0,1,1370.8711,108.0,2.0,EAT                                    DON'T EAT,1369.5431,1365.5231,1317.297
12,0,False,left,approach,pos,cake22_crop.jpg,1,2,1.0,11.0,1,1372.1534,108.0,2.0,EAT                                    DON'T EAT,1371.5614,1365.5231,1317.297
13,0,True,left,avoid,pos,meat18_crop.jpg,1,2,1.0,12.0,2,1374.6975,108.0,2.0,EAT                                    DON'T EAT,1373.5796,1365.5231,1317.297
14,0,True,left,avoid,neg,fungus16_crop.jpg,1,2,1.0,13.0,2,1376.7168,108.0,2.0,EAT                                    DON'T EAT,1375.5979,1365.5231,1317.297
15,0,False,left,approach,pos,cake23_crop.jpg,1,2,1.0,14.0,1,1378.4281,108.0,2.0,EAT                                    DON'T EAT,1377.6166,1365.5231,1317.297
16,0,False,left,approach,pos,cake29_crop.jpg,1,2,1.0,15.0,1,1380.3688,108.0,2.0,EAT                                    DON'T EAT,1379.6348,1365.5231,1317.297
17,0,False,left,approach,pos,cake20_crop.jpg,1,2,1.0,16.0,1,1382.2821,108.0,2.0,EAT                                    DON'T EAT,1381.653,1365.5231,1317.297
18,0,False,left,approach,pos,cake32_crop.jpg,1,2,1.0,17.0,1,1384.4943,108.0,2.0,EAT                                    DON'T EAT,1383.6713,1365.5231,1317.297
19,0,False,left,approach,pos,cake18_crop.jpg,1,2,1.0,18.0,1,1386.5225,108.0,2.0,EAT                                    DON'T EAT,1385.6898,1365.5231,1317.297
20,0,False,left,approach,pos,cake10_crop.jpg,1,2,1.0,19.0,1,1388.4346,108.0,2.0,EAT                                    DON'T EAT,1387.7079,1365.5231,1317.297
21,0,False,right,approach,pos,cake18_crop.jpg,1,3,1.0,20.0,1,1405.686,108.0,3.0,EAT                                    DON'T EAT,1404.8225,1400.8024,1317.297
22,0,False,right,approach,pos,cake30_crop.jpg,1,3,1.0,21.0,1,1407.4121,108.0,3.0,EAT                                    DON'T EAT,1406.8407,1400.8024,1317.297
23,0,True,right,avoid,neg,fungus5_crop.jpg,1,3,1.0,22.0,2,1409.849,108.0,3.0,EAT                                    DON'T EAT,1408.8591,1400.8024,1317.297
24,0,False,right,approach,pos,cake24_crop.jpg,1,3,1.0,23.0,1,1411.6887,108.0,3.0,EAT                                    DON'T EAT,1410.8777,1400.8024,1317.297
25,0,False,right,approach,pos,cake14_crop.jpg,1,3,1.0,24.0,1,1413.4648,108.0,3.0,EAT                                    DON'T EAT,1412.8959,1400.8024,1317.297
26,0,False,right,approach,pos,cake25_crop.jpg,1,3,1.0,25.0,1,1415.5254,108.0,3.0,EAT                                    DON'T EAT,1414.9142,1400.8024,1317.297
27,0,True,right,avoid,pos,meat28_crop.jpg,1,3,1.0,26.0,2,1417.8939,108.0,3.0,EAT                                    DON'T EAT,1416.9325,1400.8024,1317.297
28,0,False,right,approach,pos,cake2_crop.jpg,1,3,1.0,27.0,1,1419.689,108.0,3.0,EAT                                    DON'T EAT,1418.9506,1400.8024,1317.297
29,0,False,right,approach,pos,cake16_crop.jpg,1,3,1.0,28.0,1,1422.4279,108.0,3.0,EAT                                    DON'T EAT,1420.9686,1400.8024,1317.297
30,0,False,right,approach,pos,cake6_crop.jpg,1,3,1.0,29.0,1,1424.0721,108.0,3.0,EAT                                    DON'T EAT,1422.9875,1400.8024,1317.297
31,1,True,right,avoid,neg,fungus40_crop.jpg,1,4,1.0,30.0,2,1443.2255,108.0,4.0,EAT                                    DON'T EAT,1442.0868,1438.0668,1317.297
32,1,True,right,avoid,pos,meat7_crop.jpg,1,4,1.0,31.0,2,1445.6344,108.0,4.0,EAT                                    DON'T EAT,1444.1052,1438.0668,1317.297
33,1,False,right,approach,neg,insect31_crop.jpg,1,4,1.0,32.0,1,1447.0713,108.0,4.0,EAT                                    DON'T EAT,1446.1234,1438.0668,1317.297
34,1,False,right,approach,neg,insect34_crop.jpg,1,4,1.0,33.0,1,1448.8246,108.0,4.0,EAT                                    DON'T EAT,1448.1417,1438.0668,1317.297
35,1,False,right,approach,neg,insect11_crop.jpg,1,4,1.0,34.0,1,1450.7706,108.0,4.0,EAT                                    DON'T EAT,1450.16,1438.0668,1317.297
36,1,False,right,approach,neg,insect36_crop.jpg,1,4,1.0,35.0,1,1452.8203,108.0,4.0,EAT                                    DON'T EAT,1452.1781,1438.0668,1317.297
37,1,False,right,approach,neg,insect14_crop.jpg,1,4,1.0,36.0,1,1454.8386,108.0,4.0,EAT                                    DON'T EAT,1454.1968,1438.0668,1317.297
38,1,False,right,approach,neg,insect16_crop.jpg,1,4,1.0,37.0,1,1456.9014,108.0,4.0,EAT                                    DON'T EAT,1456.2152,1438.0668,1317.297
39,1,False,right,approach,neg,insect33_crop.jpg,1,4,1.0,38.0,1,1458.7731,108.0,4.0,EAT                                    DON'T EAT,1458.2334,1438.0668,1317.297
40,1,False,right,approach,neg,insect4_crop.jpg,1,4,1.0,39.0,1,1460.8734,108.0,4.0,EAT                                    DON'T EAT,1460.2516,1438.0668,1317.297
41,0,True,left,approach,neg,insect38_crop.jpg,1,5,1.0,40.0,1,1477.3375,108.0,5.0,EAT                                    DON'T EAT,1476.4319,1472.4119,1317.297
42,0,False,left,avoid,pos,meat4_crop.jpg,1,5,1.0,41.0,2,1479.4009,108.0,5.0,EAT                                    DON'T EAT,1478.4502,1472.4119,1317.297
43,0,True,left,approach,pos,cake27_crop.jpg,1,5,1.0,42.0,1,1481.4097,108.0,5.0,EAT                                    DON'T EAT,1480.4685,1472.4119,1317.297
44,0,False,left,avoid,pos,meat25_crop.jpg,1,5,1.0,43.0,2,1483.5822,108.0,5.0,EAT                                    DON'T EAT,1482.4869,1472.4119,1317.297
45,0,False,left,avoid,pos,meat6_crop.jpg,1,5,1.0,44.0,2,1485.4229,108.0,5.0,EAT                                    DON'T EAT,1484.5054,1472.4119,1317.297
46,0,False,left,avoid,pos,meat15_crop.jpg,1,5,1.0,45.0,2,1487.3989,108.0,5.0,EAT                                    DON'T EAT,1486.5236,1472.4119,1317.297
47,0,False,left,avoid,pos,meat3_crop.jpg,1,5,1.0,46.0,2,1489.8973,108.0,5.0,EAT                                    DON'T EAT,1488.5419,1472.4119,1317.297
48,0,False,left,avoid,pos,meat35_crop.jpg,1,5,1.0,47.0,2,1491.4542,108.0,5.0,EAT                                    DON'T EAT,1490.5602,1472.4119,1317.297
49,0,False,left,avoid,pos,meat32_crop.jpg,1,5,1.0,48.0,2,1493.2769,108.0,5.0,EAT                                    DON'T EAT,1492.5786,1472.4119,1317.297
50,0,False,left,avoid,pos,meat17_crop.jpg,1,5,1.0,49.0,2,1495.6191,108.0,5.0,EAT                                    DON'T EAT,1494.597,1472.4119,1317.297
51,2,True,right,avoid,neg,fungus20_crop.jpg,1,6,1.0,50.0,2,1512.2922,108.0,6.0,EAT                                    DON'T EAT,1511.2775,1507.2574,1317.297
52,2,False,right,approach,neg,insect1_crop.jpg,1,6,1.0,51.0,1,1514.3273,108.0,6.0,EAT                                    DON'T EAT,1513.2958,1507.2574,1317.297
53,2,False,right,approach,neg,insect28_crop.jpg,1,6,1.0,52.0,1,1516.3579,108.0,6.0,EAT                                    DON'T EAT,1515.3141,1507.2574,1317.297
54,2,False,right,approach,neg,insect15_crop.jpg,1,6,1.0,53.0,1,1518.0631,108.0,6.0,EAT                                    DON'T EAT,1517.3324,1507.2574,1317.297
55,2,False,right,approach,neg,insect17_crop.jpg,1,6,1.0,54.0,1,1519.9608,108.0,6.0,EAT                                    DON'T EAT,1519.3505,1507.2574,1317.297
56,2,False,right,approach,neg,insect5_crop.jpg,1,6,1.0,55.0,1,1521.9384,108.0,6.0,EAT                                    DON'T EAT,1521.3691,1507.2574,1317.297
57,2,True,right,avoid,pos,meat18_crop.jpg,1,6,1.0,56.0,2,1524.1981,108.0,6.0,EAT                                    DON'T EAT,1523.3876,1507.2574,1317.297
58,2,False,right,approach,neg,insect2_crop.jpg,1,6,1.0,57.0,1,1526.4512,108.0,6.0,EAT                                    DON'T EAT,1525.4054,1507.2574,1317.297
59,2,False,right,approach,neg,insect29_crop.jpg,1,6,1.0,58.0,1,1528.1622,108.0,6.0,EAT                                    DON'T EAT,1527.4242,1507.2574,1317.297
60,2,False,right,approach,neg,insect7_crop.jpg,1,6,1.0,59.0,1,1530.0018,108.0,6.0,EAT                                    DON'T EAT,1529.4425,1507.2574,1317.297
61,1,False,right,approach,pos,cake11_crop.jpg,1,7,1.0,60.0,1,1548.071,108.0,7.0,EAT                                    DON'T EAT,1547.3741,1543.3539,1317.297
62,1,True,right,avoid,neg,fungus30_crop.jpg,1,7,1.0,61.0,2,1550.5641,108.0,7.0,EAT                                    DON'T EAT,1549.3925,1543.3539,1317.297
63,1,True,right,avoid,pos,meat11_crop.jpg,1,7,1.0,62.0,2,1552.3936,108.0,7.0,EAT                                    DON'T EAT,1551.4108,1543.3539,1317.297
64,1,False,right,approach,pos,cake15_crop.jpg,1,7,1.0,63.0,1,1554.2406,108.0,7.0,EAT                                    DON'T EAT,1553.4292,1543.3539,1317.297
65,1,False,right,approach,pos,cake22_crop.jpg,1,7,1.0,64.0,1,1556.8073,108.0,7.0,EAT                                    DON'T EAT,1555.4475,1543.3539,1317.297
66,1,False,right,approach,pos,cake3_crop.jpg,1,7,1.0,65.0,1,1558.6646,108.0,7.0,EAT                                    DON'T EAT,1557.466,1543.3539,1317.297
67,1,False,right,approach,pos,cake37_crop.jpg,1,7,1.0,66.0,1,1560.8389,108.0,7.0,EAT                                    DON'T EAT,1559.4838,1543.3539,1317.297
68,1,False,right,approach,pos,cake10_crop.jpg,1,7,1.0,67.0,1,1562.7546,108.0,7.0,EAT                                    DON'T EAT,1561.5026,1543.3539,1317.297
69,1,False,right,approach,pos,cake33_crop.jpg,1,7,1.0,68.0,1,1564.4586,108.0,7.0,EAT                                    DON'T EAT,1563.5208,1543.3539,1317.297
70,1,False,right,approach,pos,cake32_crop.jpg,1,7,1.0,69.0,1,1566.1975,108.0,7.0,EAT                                    DON'T EAT,1565.5391,1543.3539,1317.297
71,3,False,left,avoid,neg,fungus36_crop.jpg,1,8,1.0,70.0,2,1584.7827,108.0,8.0,EAT                                    DON'T EAT,1583.6542,1579.6344,1317.297
72,3,False,left,avoid,neg,fungus10_crop.jpg,1,8,1.0,71.0,2,1586.4911,108.0,8.0,EAT                                    DON'T EAT,1585.6724,1579.6344,1317.297
73,3,False,left,avoid,neg,fungus23_crop.jpg,1,8,1.0,72.0,2,1588.4929,108.0,8.0,EAT                                    DON'T EAT,1587.6909,1579.6344,1317.297
74,3,True,left,approach,pos,cake5_crop.jpg,1,8,1.0,73.0,1,1590.5011,108.0,8.0,EAT                                    DON'T EAT,1589.709,1579.6344,1317.297
75,3,False,left,avoid,neg,fungus7_crop.jpg,1,8,1.0,74.0,2,1592.6145,108.0,8.0,EAT                                    DON'T EAT,1591.7278,1579.6344,1317.297
76,3,True,left,approach,neg,insect16_crop.jpg,1,8,1.0,75.0,1,1594.5239,108.0,8.0,EAT                                    DON'T EAT,1593.746,1579.6344,1317.297
77,3,False,left,avoid,neg,fungus38_crop.jpg,1,8,1.0,76.0,2,1596.9966,108.0,8.0,EAT                                    DON'T EAT,1595.764,1579.6344,1317.297
78,3,False,left,avoid,neg,fungus19_crop.jpg,1,8,1.0,77.0,2,1598.5184,108.0,8.0,EAT                                    DON'T EAT,1597.7827,1579.6344,1317.297
79,3,False,left,avoid,neg,fungus1_crop.jpg,1,8,1.0,78.0,2,1600.4991,108.0,8.0,EAT                                    DON'T EAT,1599.801,1579.6344,1317.297
80,3,False,left,avoid,neg,fungus40_crop.jpg,1,8,1.0,79.0,2,1602.6123,108.0,8.0,EAT                                    DON'T EAT,1601.8191,1579.6344,1317.297
81,0,False,right,approach,neg,insect35_crop.jpg,2,9,1.0,80.0,1,1724.6838,108.0,9.0,EAT                                    DON'T EAT,1723.9039,1719.8838,1708.1249
82,0,False,right,approach,neg,insect9_crop.jpg,2,9,1.0,81.0,1,1726.4282,108.0,9.0,EAT                                    DON'T EAT,1725.9224,1719.8838,1708.1249
83,0,False,right,approach,neg,insect32_crop.jpg,2,9,1.0,82.0,1,1728.4988,108.0,9.0,EAT                                    DON'T EAT,1727.9407,1719.8838,1708.1249
84,0,False,right,approach,neg,insect37_crop.jpg,2,9,1.0,83.0,1,1730.4419,108.0,9.0,EAT                                    DON'T EAT,1729.959,1719.8838,1708.1249
85,0,True,right,avoid,neg,fungus3_crop.jpg,2,9,1.0,84.0,2,1732.7678,108.0,9.0,EAT                                    DON'T EAT,1731.9774,1719.8838,1708.1249
86,0,False,right,approach,neg,insect30_crop.jpg,2,9,1.0,85.0,1,1734.6912,108.0,9.0,EAT                                    DON'T EAT,1733.9957,1719.8838,1708.1249
87,0,False,right,approach,neg,insect23_crop.jpg,2,9,1.0,86.0,1,1736.7103,108.0,9.0,EAT                                    DON'T EAT,1736.014,1719.8838,1708.1249
88,0,True,right,avoid,pos,meat38_crop.jpg,2,9,1.0,87.0,2,1738.8229,108.0,9.0,EAT                                    DON'T EAT,1738.0325,1719.8838,1708.1249
89,0,False,right,approach,neg,insect3_crop.jpg,2,9,1.0,88.0,1,1741.024,108.0,9.0,EAT                                    DON'T EAT,1740.0504,1719.8838,1708.1249
90,0,False,right,approach,neg,insect40_crop.jpg,2,9,1.0,89.0,1,1742.922,108.0,9.0,EAT                                    DON'T EAT,1742.0691,1719.8838,1708.1249
91,0,False,right,avoid,neg,fungus36_crop.jpg,2,10,1.0,90.0,2,1761.6674,108.0,10.0,EAT                                    DON'T EAT,1760.7513,1756.7313,1708.1249
92,0,False,right,avoid,neg,fungus29_crop.jpg,2,10,1.0,91.0,2,1763.572,108.0,10.0,EAT                                    DON'T EAT,1762.7695,1756.7313,1708.1249
93,0,True,right,approach,pos,cake29_crop.jpg,2,10,1.0,92.0,1,1765.7456,108.0,10.0,EAT                                    DON'T EAT,1764.788,1756.7313,1708.1249
94,0,True,right,approach,neg,insect22_crop.jpg,2,10,1.0,93.0,1,1767.6403,108.0,10.0,EAT                                    DON'T EAT,1766.8064,1756.7313,1708.1249
95,0,False,right,avoid,neg,fungus14_crop.jpg,2,10,1.0,94.0,2,1769.7815,108.0,10.0,EAT                                    DON'T EAT,1768.8246,1756.7313,1708.1249
96,0,False,right,avoid,neg,fungus19_crop.jpg,2,10,1.0,95.0,2,1771.4954,108.0,10.0,EAT                                    DON'T EAT,1770.8429,1756.7313,1708.1249
97,0,False,right,avoid,neg,fungus26_crop.jpg,2,10,1.0,96.0,2,1773.5035,108.0,10.0,EAT                                    DON'T EAT,1772.8613,1756.7313,1708.1249
98,0,False,right,avoid,neg,fungus38_crop.jpg,2,10,1.0,97.0,2,1775.4791,108.0,10.0,EAT                                    DON'T EAT,1774.8796,1756.7313,1708.1249
99,0,False,right,avoid,neg,fungus4_crop.jpg,2,10,1.0,98.0,2,1777.4707,108.0,10.0,EAT                                    DON'T EAT,1776.8982,1756.7313,1708.1249
100,0,False,right,avoid,neg,fungus23_crop.jpg,2,10,1.0,99.0,2,1779.6016,108.0,10.0,EAT                                    DON'T EAT,1778.9164,1756.7313,1708.1249
101,1,False,left,approach,neg,insect6_crop.jpg,2,11,1.0,100.0,1,1798.6514,108.0,11.0,EAT                                    DON'T EAT,1797.5653,1793.5453,1708.1249
102,1,True,left,avoid,neg,fungus37_crop.jpg,2,11,1.0,101.0,2,1800.3739,108.0,11.0,EAT                                    DON'T EAT,1799.5834,1793.5453,1708.1249
103,1,False,left,approach,neg,insect15_crop.jpg,2,11,1.0,102.0,1,1802.2689,108.0,11.0,EAT                                    DON'T EAT,1801.6019,1793.5453,1708.1249
104,1,False,left,approach,neg,insect8_crop.jpg,2,11,1.0,103.0,1,1804.1173,108.0,11.0,EAT                                    DON'T EAT,1803.6201,1793.5453,1708.1249
105,1,False,left,approach,neg,insect25_crop.jpg,2,11,1.0,104.0,1,1806.239,108.0,11.0,EAT                                    DON'T EAT,1805.6385,1793.5453,1708.1249
106,1,False,left,approach,neg,insect10_crop.jpg,2,11,1.0,105.0,1,1808.4893,108.0,11.0,EAT                                    DON'T EAT,1807.6569,1793.5453,1708.1249
107,1,False,left,approach,neg,insect39_crop.jpg,2,11,1.0,106.0,1,1810.391,108.0,11.0,EAT                                    DON'T EAT,1809.6753,1793.5453,1708.1249
108,1,True,left,avoid,pos,meat14_crop.jpg,2,11,1.0,107.0,2,1812.7925,108.0,11.0,EAT                                    DON'T EAT,1811.6935,1793.5453,1708.1249
109,1,False,left,approach,neg,insect29_crop.jpg,2,11,1.0,108.0,1,1814.502,108.0,11.0,EAT                                    DON'T EAT,1813.7119,1793.5453,1708.1249
110,1,False,left,approach,neg,insect34_crop.jpg,2,11,1.0,109.0,1,1816.2991,108.0,11.0,EAT                                    DON'T EAT,1815.7303,1793.5453,1708.1249
111,3,True,right,avoid,pos,meat26_crop.jpg,2,12,1.0,110.0,2,1832.6693,108.0,12.0,EAT                                    DON'T EAT,1831.8269,1827.807,1708.1249
112,3,False,right,approach,neg,insect18_crop.jpg,2,12,1.0,111.0,1,1834.5629,108.0,12.0,EAT                                    DON'T EAT,1833.8453,1827.807,1708.1249
113,3,False,right,approach,neg,insect6_crop.jpg,2,12,1.0,112.0,1,1836.4755,108.0,12.0,EAT                                    DON'T EAT,1835.8636,1827.807,1708.1249
114,3,False,right,approach,neg,insect21_crop.jpg,2,12,1.0,113.0,1,1838.504,108.0,12.0,EAT                                    DON'T EAT,1837.882,1827.807,1708.1249
115,3,False,right,approach,neg,insect20_crop.jpg,2,12,1.0,114.0,1,1841.1915,108.0,12.0,EAT                                    DON'T EAT,1839.9003,1827.807,1708.1249
116,3,False,right,approach,neg,insect10_crop.jpg,2,12,1.0,115.0,1,1842.8239,108.0,12.0,EAT                                    DON'T EAT,1841.9185,1827.807,1708.1249
117,3,False,right,approach,neg,insect38_crop.jpg,2,12,1.0,116.0,1,1844.5323,108.0,12.0,EAT                                    DON'T EAT,1843.9365,1827.807,1708.1249
118,3,True,right,avoid,neg,fungus16_crop.jpg,2,12,1.0,117.0,2,1846.905,108.0,12.0,EAT                                    DON'T EAT,1845.9553,1827.807,1708.1249
119,3,False,right,approach,neg,insect19_crop.jpg,2,12,1.0,118.0,1,1848.7722,108.0,12.0,EAT                                    DON'T EAT,1847.9736,1827.807,1708.1249
120,3,False,right,approach,neg,insect24_crop.jpg,2,12,1.0,119.0,1,1850.8301,108.0,12.0,EAT                                    DON'T EAT,1849.9921,1827.807,1708.1249
121,0,False,right,avoid,pos,meat5_crop.jpg,2,13,1.0,120.0,2,1870.4718,108.0,13.0,EAT                                    DON'T EAT,1869.608,1865.5881,1708.1249
122,0,False,right,avoid,pos,meat32_crop.jpg,2,13,1.0,121.0,2,1872.2279,108.0,13.0,EAT                                    DON'T EAT,1871.6267,1865.5881,1708.1249
123,0,True,right,approach,pos,cake39_crop.jpg,2,13,1.0,122.0,1,1874.3414,108.0,13.0,EAT                                    DON'T EAT,1873.6449,1865.5881,1708.1249
124,0,False,right,avoid,pos,meat15_crop.jpg,2,13,1.0,123.0,2,1876.4668,108.0,13.0,EAT                                    DON'T EAT,1875.6633,1865.5881,1708.1249
125,0,False,right,avoid,pos,meat31_crop.jpg,2,13,1.0,124.0,2,1878.4823,108.0,13.0,EAT                                    DON'T EAT,1877.6814,1865.5881,1708.1249
126,0,False,right,avoid,pos,meat17_crop.jpg,2,13,1.0,125.0,2,1880.439,108.0,13.0,EAT                                    DON'T EAT,1879.7001,1865.5881,1708.1249
127,0,False,right,avoid,pos,meat24_crop.jpg,2,13,1.0,126.0,2,1882.3713,108.0,13.0,EAT                                    DON'T EAT,1881.718,1865.5881,1708.1249
128,0,False,right,avoid,pos,meat13_crop.jpg,2,13,1.0,127.0,2,1884.4092,108.0,13.0,EAT                                    DON'T EAT,1883.7367,1865.5881,1708.1249
129,0,False,right,avoid,pos,meat37_crop.jpg,2,13,1.0,128.0,2,1886.5778,108.0,13.0,EAT                                    DON'T EAT,1885.755,1865.5881,1708.1249
130,0,True,right,approach,neg,insect27_crop.jpg,2,13,1.0,129.0,1,1888.5734,108.0,13.0,EAT                                    DON'T EAT,1887.7733,1865.5881,1708.1249
131,2,False,left,avoid,pos,meat36_crop.jpg,2,14,1.0,130.0,2,1907.16,108.0,14.0,EAT                                    DON'T EAT,1906.2715,1902.2517,1708.1249
132,2,False,left,avoid,pos,meat40_crop.jpg,2,14,1.0,131.0,2,1908.8153,108.0,14.0,EAT                                    DON'T EAT,1908.2898,1902.2517,1708.1249
133,2,False,left,avoid,pos,meat33_crop.jpg,2,14,1.0,132.0,2,1911.4155,108.0,14.0,EAT                                    DON'T EAT,1910.3082,1902.2517,1708.1249
134,2,False,left,avoid,pos,meat12_crop.jpg,2,14,1.0,133.0,2,1912.9738,108.0,14.0,EAT                                    DON'T EAT,1912.3265,1902.2517,1708.1249
135,2,False,left,avoid,pos,meat7_crop.jpg,2,14,1.0,134.0,2,1914.872,108.0,14.0,EAT                                    DON'T EAT,1914.3448,1902.2517,1708.1249
136,2,False,left,avoid,pos,meat20_crop.jpg,2,14,1.0,135.0,2,1916.8057,108.0,14.0,EAT                                    DON'T EAT,1916.3638,1902.2517,1708.1249
137,2,True,left,approach,pos,cake34_crop.jpg,2,14,1.0,136.0,1,1919.2888,108.0,14.0,EAT                                    DON'T EAT,1918.3821,1902.2517,1708.1249
138,2,False,left,avoid,pos,meat38_crop.jpg,2,14,1.0,137.0,2,1921.1166,108.0,14.0,EAT                                    DON'T EAT,1920.4005,1902.2517,1708.1249
139,2,True,left,approach,neg,insect7_crop.jpg,2,14,1.0,138.0,1,1923.1703,108.0,14.0,EAT                                    DON'T EAT,1922.4188,1902.2517,1708.1249
140,2,False,left,avoid,pos,meat23_crop.jpg,2,14,1.0,139.0,2,1925.1532,108.0,14.0,EAT                                    DON'T EAT,1924.4371,1902.2517,1708.1249
141,1,False,left,avoid,pos,meat8_crop.jpg,2,15,1.0,140.0,2,1941.9325,108.0,15.0,EAT                                    DON'T EAT,1941.1843,1937.1643,1708.1249
142,1,True,left,approach,pos,cake15_crop.jpg,2,15,1.0,141.0,2,1944.098,108.0,15.0,EAT                                    DON'T EAT,1943.2026,1937.1643,1708.1249
143,1,False,left,avoid,pos,meat27_crop.jpg,2,15,1.0,142.0,1,1945.3046,108.0,15.0,EAT                                    DON'T EAT,1945.2211,1937.1643,1708.1249
144,1,False,left,avoid,pos,meat28_crop.jpg,2,15,1.0,143.0,2,1948.1056,108.0,15.0,EAT                                    DON'T EAT,1947.2394,1937.1643,1708.1249
145,1,False,left,avoid,pos,meat9_crop.jpg,2,15,1.0,144.0,2,1950.28,108.0,15.0,EAT                                    DON'T EAT,1949.2579,1937.1643,1708.1249
146,1,False,left,avoid,pos,meat37_crop.jpg,2,15,1.0,145.0,2,1952.352,108.0,15.0,EAT                                    DON'T EAT,1951.276,1937.1643,1708.1249
147,1,True,left,approach,neg,insect27_crop.jpg,2,15,1.0,146.0,1,1954.0123,108.0,15.0,EAT                                    DON'T EAT,1953.2944,1937.1643,1708.1249
148,1,False,left,avoid,pos,meat5_crop.jpg,2,15,1.0,147.0,2,1956.6794,108.0,15.0,EAT                                    DON'T EAT,1955.3127,1937.1643,1708.1249
149,1,False,left,avoid,pos,meat10_crop.jpg,2,15,1.0,148.0,2,1957.9546,108.0,15.0,EAT                                    DON'T EAT,1957.3312,1937.1643,1708.1249
150,1,False,left,avoid,pos,meat21_crop.jpg,2,15,1.0,149.0,2,1960.247,108.0,15.0,EAT                                    DON'T EAT,1959.3494,1937.1643,1708.1249
151,3,False,right,avoid,pos,meat16_crop.jpg,2,16,1.0,150.0,2,1977.7782,108.0,16.0,EAT                                    DON'T EAT,1976.9976,1972.9774,1708.1249
152,3,False,right,avoid,pos,meat4_crop.jpg,2,16,1.0,151.0,2,1980.0923,108.0,16.0,EAT                                    DON'T EAT,1979.0159,1972.9774,1708.1249
153,3,True,right,approach,neg,insect25_crop.jpg,2,16,1.0,152.0,1,1981.7391,108.0,16.0,EAT                                    DON'T EAT,1981.0339,1972.9774,1708.1249
154,3,False,right,avoid,pos,meat23_crop.jpg,2,16,1.0,153.0,2,1983.7397,108.0,16.0,EAT                                    DON'T EAT,1983.0524,1972.9774,1708.1249
155,3,False,right,avoid,pos,meat19_crop.jpg,2,16,1.0,154.0,2,1985.7141,108.0,16.0,EAT                                    DON'T EAT,1985.0708,1972.9774,1708.1249
156,3,False,right,avoid,pos,meat33_crop.jpg,2,16,1.0,155.0,2,1987.8469,108.0,16.0,EAT                                    DON'T EAT,1987.0891,1972.9774,1708.1249
157,3,False,right,avoid,pos,meat12_crop.jpg,2,16,1.0,156.0,2,1989.8601,108.0,16.0,EAT                                    DON'T EAT,1989.1075,1972.9774,1708.1249
158,3,False,right,avoid,pos,meat25_crop.jpg,2,16,1.0,157.0,2,1991.9331,108.0,16.0,EAT                                    DON'T EAT,1991.126,1972.9774,1708.1249
159,3,False,right,avoid,pos,meat34_crop.jpg,2,16,1.0,158.0,2,1994.03,108.0,16.0,EAT                                    DON'T EAT,1993.1443,1972.9774,1708.1249
160,3,True,right,approach,pos,cake38_crop.jpg,2,16,1.0,159.0,1,1996.0583,108.0,16.0,EAT                                    DON'T EAT,1995.1624,1972.9774,1708.1249
161,0,False,left,avoid,neg,fungus2_crop.jpg,3,17,1.0,160.0,2,2093.625,108.0,17.0,EAT                                    DON'T EAT,2092.7935,2088.7734,2076.8928
162,0,True,left,approach,neg,insect9_crop.jpg,3,17,1.0,161.0,1,2095.4456,108.0,17.0,EAT                                    DON'T EAT,2094.812,2088.7734,2076.8928
163,0,True,left,approach,pos,cake24_crop.jpg,3,17,1.0,162.0,1,2097.545,108.0,17.0,EAT                                    DON'T EAT,2096.8303,2088.7734,2076.8928
164,0,False,left,avoid,neg,fungus39_crop.jpg,3,17,1.0,163.0,2,2099.6514,108.0,17.0,EAT                                    DON'T EAT,2098.8486,2088.7734,2076.8928
165,0,False,left,avoid,neg,fungus30_crop.jpg,3,17,1.0,164.0,2,2101.7214,108.0,17.0,EAT                                    DON'T EAT,2100.867,2088.7734,2076.8928
166,0,False,left,avoid,neg,fungus18_crop.jpg,3,17,1.0,165.0,2,2103.5586,108.0,17.0,EAT                                    DON'T EAT,2102.8853,2088.7734,2076.8928
167,0,False,left,avoid,neg,fungus33_crop.jpg,3,17,1.0,166.0,2,2105.662,108.0,17.0,EAT                                    DON'T EAT,2104.9033,2088.7734,2076.8928
168,0,False,left,avoid,neg,fungus20_crop.jpg,3,17,1.0,167.0,2,2107.6396,108.0,17.0,EAT                                    DON'T EAT,2106.9219,2088.7734,2076.8928
169,0,False,left,avoid,neg,fungus28_crop.jpg,3,17,1.0,168.0,2,2109.6443,108.0,17.0,EAT                                    DON'T EAT,2108.9402,2088.7734,2076.8928
170,0,False,left,avoid,neg,fungus9_crop.jpg,3,17,1.0,169.0,2,2111.5884,108.0,17.0,EAT                                    DON'T EAT,2110.9585,2088.7734,2076.8928
171,3,False,left,avoid,pos,meat29_crop.jpg,3,18,1.0,170.0,2,2130.6536,108.0,18.0,EAT                                    DON'T EAT,2129.8743,2125.8542,2076.8928
172,3,False,left,avoid,pos,meat39_crop.jpg,3,18,1.0,171.0,2,2132.8,108.0,18.0,EAT                                    DON'T EAT,2131.8928,2125.8542,2076.8928
173,3,False,left,avoid,pos,meat30_crop.jpg,3,18,1.0,172.0,2,2134.596,108.0,18.0,EAT                                    DON'T EAT,2133.9111,2125.8542,2076.8928
174,3,False,left,avoid,pos,meat16_crop.jpg,3,18,1.0,173.0,2,2136.553,108.0,18.0,EAT                                    DON'T EAT,2135.9294,2125.8542,2076.8928
175,3,True,left,approach,neg,insect21_crop.jpg,3,18,1.0,174.0,1,2138.6743,108.0,18.0,EAT                                    DON'T EAT,2137.9478,2125.8542,2076.8928
176,3,False,left,avoid,pos,meat19_crop.jpg,3,18,1.0,175.0,2,2140.7256,108.0,18.0,EAT                                    DON'T EAT,2139.966,2125.8542,2076.8928
177,3,False,left,avoid,pos,meat24_crop.jpg,3,18,1.0,176.0,2,2142.6592,108.0,18.0,EAT                                    DON'T EAT,2141.9844,2125.8542,2076.8928
178,3,False,left,avoid,pos,meat1_crop.jpg,3,18,1.0,177.0,2,2144.7817,108.0,18.0,EAT                                    DON'T EAT,2144.003,2125.8542,2076.8928
179,3,True,left,approach,pos,cake6_crop.jpg,3,18,1.0,178.0,1,2146.7637,108.0,18.0,EAT                                    DON'T EAT,2146.021,2125.8542,2076.8928
180,3,False,left,avoid,pos,meat2_crop.jpg,3,18,1.0,179.0,2,2148.7544,108.0,18.0,EAT                                    DON'T EAT,2148.0393,2125.8542,2076.8928
181,2,False,right,avoid,neg,fungus6_crop.jpg,3,19,1.0,180.0,2,2166.2876,108.0,19.0,EAT                                    DON'T EAT,2165.5706,2161.5503,2076.8928
182,2,False,right,avoid,neg,fungus25_crop.jpg,3,19,1.0,181.0,2,2168.3972,108.0,19.0,EAT                                    DON'T EAT,2167.5889,2161.5503,2076.8928
183,2,False,right,avoid,neg,fungus28_crop.jpg,3,19,1.0,182.0,2,2170.3452,108.0,19.0,EAT                                    DON'T EAT,2169.6074,2161.5503,2076.8928
184,2,False,right,avoid,neg,fungus1_crop.jpg,3,19,1.0,183.0,2,2172.2256,108.0,19.0,EAT                                    DON'T EAT,2171.6257,2161.5503,2076.8928
185,2,True,right,approach,neg,insect26_crop.jpg,3,19,1.0,184.0,1,2174.4167,108.0,19.0,EAT                                    DON'T EAT,2173.644,2161.5503,2076.8928
186,2,False,right,avoid,neg,fungus12_crop.jpg,3,19,1.0,185.0,2,2176.3381,108.0,19.0,EAT                                    DON'T EAT,2175.6624,2161.5503,2076.8928
187,2,False,right,avoid,neg,fungus21_crop.jpg,3,19,1.0,186.0,2,2178.7231,108.0,19.0,EAT                                    DON'T EAT,2177.6807,2161.5503,2076.8928
188,2,True,right,approach,pos,cake23_crop.jpg,3,19,1.0,187.0,1,2180.5103,108.0,19.0,EAT                                    DON'T EAT,2179.699,2161.5503,2076.8928
189,2,False,right,avoid,neg,fungus22_crop.jpg,3,19,1.0,188.0,2,2182.3374,108.0,19.0,EAT                                    DON'T EAT,2181.7173,2161.5503,2076.8928
190,2,False,right,avoid,neg,fungus2_crop.jpg,3,19,1.0,189.0,2,2184.474,108.0,19.0,EAT                                    DON'T EAT,2183.7358,2161.5503,2076.8928
191,3,False,left,approach,neg,insect2_crop.jpg,3,20,1.0,190.0,1,2202.664,108.0,20.0,EAT                                    DON'T EAT,2201.934,2197.9138,2076.8928
192,3,False,left,approach,neg,insect3_crop.jpg,3,20,1.0,191.0,1,2204.509,108.0,20.0,EAT                                    DON'T EAT,2203.9524,2197.9138,2076.8928
193,3,False,left,approach,neg,insect26_crop.jpg,3,20,1.0,192.0,1,2206.731,108.0,20.0,EAT                                    DON'T EAT,2205.971,2197.9138,2076.8928
194,3,False,left,approach,neg,insect12_crop.jpg,3,20,1.0,193.0,1,2208.5684,108.0,20.0,EAT                                    DON'T EAT,2207.9893,2197.9138,2076.8928
195,3,False,left,approach,neg,insect33_crop.jpg,3,20,1.0,194.0,1,2210.6184,108.0,20.0,EAT                                    DON'T EAT,2210.0076,2197.9138,2076.8928
196,3,True,left,avoid,pos,meat11_crop.jpg,3,20,1.0,195.0,2,2212.71,108.0,20.0,EAT                                    DON'T EAT,2212.0261,2197.9138,2076.8928
197,3,False,left,approach,neg,insect28_crop.jpg,3,20,1.0,196.0,1,2214.688,108.0,20.0,EAT                                    DON'T EAT,2214.0442,2197.9138,2076.8928
198,3,True,left,avoid,neg,fungus21_crop.jpg,3,20,1.0,197.0,2,2216.8643,108.0,20.0,EAT                                    DON'T EAT,2216.0625,2197.9138,2076.8928
199,3,False,left,approach,neg,insect11_crop.jpg,3,20,1.0,198.0,1,2219.1655,108.0,20.0,EAT                                    DON'T EAT,2218.081,2197.9138,2076.8928
200,3,False,left,approach,neg,insect19_crop.jpg,3,20,1.0,199.0,1,2220.6892,108.0,20.0,EAT                                    DON'T EAT,2220.099,2197.9138,2076.8928
201,1,False,left,avoid,neg,fungus22_crop.jpg,3,21,1.0,200.0,2,2239.0461,108.0,21.0,EAT                                    DON'T EAT,2238.3145,2234.2942,2076.8928
202,1,True,left,approach,neg,insect5_crop.jpg,3,21,1.0,201.0,1,2241.4932,108.0,21.0,EAT                                    DON'T EAT,2240.3323,2234.2942,2076.8928
203,1,False,left,avoid,neg,fungus17_crop.jpg,3,21,1.0,202.0,2,2243.0994,108.0,21.0,EAT                                    DON'T EAT,2242.351,2234.2942,2076.8928
204,1,False,left,avoid,neg,fungus15_crop.jpg,3,21,1.0,203.0,2,2245.043,108.0,21.0,EAT                                    DON'T EAT,2244.3694,2234.2942,2076.8928
205,1,False,left,avoid,neg,fungus29_crop.jpg,3,21,1.0,204.0,2,2247.095,108.0,21.0,EAT                                    DON'T EAT,2246.388,2234.2942,2076.8928
206,1,False,left,avoid,neg,fungus14_crop.jpg,3,21,1.0,205.0,2,2249.2173,108.0,21.0,EAT                                    DON'T EAT,2248.4062,2234.2942,2076.8928
207,1,False,left,avoid,neg,fungus8_crop.jpg,3,21,1.0,206.0,2,2251.4507,108.0,21.0,EAT                                    DON'T EAT,2250.4243,2234.2942,2076.8928
208,1,False,left,avoid,neg,fungus11_crop.jpg,3,21,1.0,207.0,2,2253.4128,108.0,21.0,EAT                                    DON'T EAT,2252.4424,2234.2942,2076.8928
209,1,True,left,approach,pos,cake33_crop.jpg,3,21,1.0,208.0,1,2255.1785,108.0,21.0,EAT                                    DON'T EAT,2254.4612,2234.2942,2076.8928
210,1,False,left,avoid,neg,fungus3_crop.jpg,3,21,1.0,209.0,2,2257.3,108.0,21.0,EAT                                    DON'T EAT,2256.4792,2234.2942,2076.8928
211,2,False,left,approach,pos,cake11_crop.jpg,3,22,1.0,210.0,1,2276.3735,108.0,22.0,EAT                                    DON'T EAT,2275.6787,2271.6587,2076.8928
212,2,False,left,approach,pos,cake36_crop.jpg,3,22,1.0,211.0,1,2278.331,108.0,22.0,EAT                                    DON'T EAT,2277.6973,2271.6587,2076.8928
213,2,False,left,approach,pos,cake17_crop.jpg,3,22,1.0,212.0,1,2280.3271,108.0,22.0,EAT                                    DON'T EAT,2279.7156,2271.6587,2076.8928
214,2,False,left,approach,pos,cake30_crop.jpg,3,22,1.0,213.0,1,2282.7146,108.0,22.0,EAT                                    DON'T EAT,2281.7336,2271.6587,2076.8928
215,2,False,left,approach,pos,cake25_crop.jpg,3,22,1.0,214.0,1,2284.3945,108.0,22.0,EAT                                    DON'T EAT,2283.752,2271.6587,2076.8928
216,2,False,left,approach,pos,cake12_crop.jpg,3,22,1.0,215.0,1,2286.604,108.0,22.0,EAT                                    DON'T EAT,2285.7703,2271.6587,2076.8928
217,2,False,left,approach,pos,cake4_crop.jpg,3,22,1.0,216.0,1,2288.5571,108.0,22.0,EAT                                    DON'T EAT,2287.7888,2271.6587,2076.8928
218,2,False,left,approach,pos,cake16_crop.jpg,3,22,1.0,217.0,1,2290.7039,108.0,22.0,EAT                                    DON'T EAT,2289.8071,2271.6587,2076.8928
219,2,True,left,avoid,neg,fungus35_crop.jpg,3,22,1.0,218.0,2,2292.6145,108.0,22.0,EAT                                    DON'T EAT,2291.8254,2271.6587,2076.8928
220,2,True,left,avoid,pos,meat22_crop.jpg,3,22,1.0,219.0,2,2294.8682,108.0,22.0,EAT                                    DON'T EAT,2293.8438,2271.6587,2076.8928
221,2,True,left,avoid,neg,fungus24_crop.jpg,3,23,1.0,220.0,2,2314.023,108.0,23.0,EAT                                    DON'T EAT,2313.2766,2309.2568,2076.8928
222,2,False,left,approach,neg,insect17_crop.jpg,3,23,1.0,221.0,1,2316.0005,108.0,23.0,EAT                                    DON'T EAT,2315.2952,2309.2568,2076.8928
223,2,False,left,approach,neg,insect13_crop.jpg,3,23,1.0,222.0,1,2317.8489,108.0,23.0,EAT                                    DON'T EAT,2317.3132,2309.2568,2076.8928
224,2,False,left,approach,neg,insect31_crop.jpg,3,23,1.0,223.0,1,2320.6497,108.0,23.0,EAT                                    DON'T EAT,2319.3315,2309.2568,2076.8928
225,2,False,left,approach,neg,insect32_crop.jpg,3,23,1.0,224.0,1,2321.899,108.0,23.0,EAT                                    DON'T EAT,2321.35,2309.2568,2076.8928
226,2,False,left,approach,neg,insect4_crop.jpg,3,23,1.0,225.0,1,2324.011,108.0,23.0,EAT                                    DON'T EAT,2323.368,2309.2568,2076.8928
227,2,False,left,approach,neg,insect18_crop.jpg,3,23,1.0,226.0,1,2325.9434,108.0,23.0,EAT                                    DON'T EAT,2325.3867,2309.2568,2076.8928
228,2,False,left,approach,neg,insect24_crop.jpg,3,23,1.0,227.0,1,2327.9785,108.0,23.0,EAT                                    DON'T EAT,2327.405,2309.2568,2076.8928
229,2,True,left,avoid,pos,meat31_crop.jpg,3,23,1.0,228.0,2,2330.3835,108.0,23.0,EAT                                    DON'T EAT,2329.4233,2309.2568,2076.8928
230,2,False,left,approach,neg,insect35_crop.jpg,3,23,1.0,229.0,1,2332.2017,108.0,23.0,EAT                                    DON'T EAT,2331.4417,2309.2568,2076.8928
231,0,False,left,approach,neg,insect22_crop.jpg,3,24,1.0,230.0,1,2351.6162,108.0,24.0,EAT                                    DON'T EAT,2350.908,2346.888,2076.8928
232,0,False,left,approach,neg,insect37_crop.jpg,3,24,1.0,231.0,1,2353.5798,108.0,24.0,EAT                                    DON'T EAT,2352.9263,2346.888,2076.8928
233,0,False,left,approach,neg,insect23_crop.jpg,3,24,1.0,232.0,1,2356.549,108.0,24.0,EAT                                    DON'T EAT,2354.9446,2346.888,2076.8928
234,0,False,left,approach,neg,insect30_crop.jpg,3,24,1.0,233.0,1,2357.574,108.0,24.0,EAT                                    DON'T EAT,2356.963,2346.888,2076.8928
235,0,True,left,avoid,neg,fungus27_crop.jpg,3,24,1.0,234.0,2,2359.761,108.0,24.0,EAT                                    DON'T EAT,2358.9812,2346.888,2076.8928
236,0,False,left,approach,neg,insect20_crop.jpg,3,24,1.0,235.0,1,2361.7603,108.0,24.0,EAT                                    DON'T EAT,2360.9993,2346.888,2076.8928
237,0,False,left,approach,neg,insect40_crop.jpg,3,24,1.0,236.0,1,2363.6816,108.0,24.0,EAT                                    DON'T EAT,2363.0178,2346.888,2076.8928
238,0,False,left,approach,neg,insect1_crop.jpg,3,24,1.0,237.0,1,2365.8674,108.0,24.0,EAT                                    DON'T EAT,2365.0361,2346.888,2076.8928
239,0,True,left,avoid,pos,meat26_crop.jpg,3,24,1.0,238.0,2,2367.805,108.0,24.0,EAT                                    DON'T EAT,2367.0547,2346.888,2076.8928
240,0,False,left,approach,neg,insect14_crop.jpg,3,24,1.0,239.0,1,2370.4941,108.0,24.0,EAT                                    DON'T EAT,2369.073,2346.888,2076.8928
241,1,False,right,avoid,neg,fungus24_crop.jpg,4,25,1.0,240.0,2,2451.657,108.0,25.0,EAT                                    DON'T EAT,2450.9077,2446.8875,2436.6777
242,1,False,right,avoid,neg,fungus18_crop.jpg,4,25,1.0,241.0,2,2453.495,108.0,25.0,EAT                                    DON'T EAT,2452.9258,2446.8875,2436.6777
243,1,True,right,approach,neg,insect39_crop.jpg,4,25,1.0,242.0,1,2455.6318,108.0,25.0,EAT                                    DON'T EAT,2454.944,2446.8875,2436.6777
244,1,False,right,avoid,neg,fungus11_crop.jpg,4,25,1.0,243.0,2,2457.6484,108.0,25.0,EAT                                    DON'T EAT,2456.9626,2446.8875,2436.6777
245,1,False,right,avoid,neg,fungus17_crop.jpg,4,25,1.0,244.0,2,2459.5923,108.0,25.0,EAT                                    DON'T EAT,2458.981,2446.8875,2436.6777
246,1,False,right,avoid,neg,fungus27_crop.jpg,4,25,1.0,245.0,2,2461.6416,108.0,25.0,EAT                                    DON'T EAT,2460.9993,2446.8875,2436.6777
247,1,True,right,approach,pos,cake7_crop.jpg,4,25,1.0,246.0,1,2463.724,108.0,25.0,EAT                                    DON'T EAT,2463.0176,2446.8875,2436.6777
248,1,False,right,avoid,neg,fungus31_crop.jpg,4,25,1.0,247.0,2,2465.8044,108.0,25.0,EAT                                    DON'T EAT,2465.036,2446.8875,2436.6777
249,1,False,right,avoid,neg,fungus13_crop.jpg,4,25,1.0,248.0,2,2467.9392,108.0,25.0,EAT                                    DON'T EAT,2467.0542,2446.8875,2436.6777
250,1,False,right,avoid,neg,fungus7_crop.jpg,4,25,1.0,249.0,2,2469.7583,108.0,25.0,EAT                                    DON'T EAT,2469.0725,2446.8875,2436.6777
251,1,True,right,approach,pos,cake17_crop.jpg,4,26,1.0,250.0,1,2487.977,108.0,26.0,EAT                                    DON'T EAT,2487.0708,2483.0508,2436.6777
252,1,False,right,avoid,pos,meat14_crop.jpg,4,26,1.0,251.0,2,2490.0188,108.0,26.0,EAT                                    DON'T EAT,2489.0894,2483.0508,2436.6777
253,1,False,right,avoid,pos,meat35_crop.jpg,4,26,1.0,252.0,2,2491.922,108.0,26.0,EAT                                    DON'T EAT,2491.1074,2483.0508,2436.6777
254,1,False,right,avoid,pos,meat9_crop.jpg,4,26,1.0,253.0,2,2493.82,108.0,26.0,EAT                                    DON'T EAT,2493.126,2483.0508,2436.6777
255,1,False,right,avoid,pos,meat1_crop.jpg,4,26,1.0,254.0,2,2495.881,108.0,26.0,EAT                                    DON'T EAT,2495.1443,2483.0508,2436.6777
256,1,True,right,approach,neg,insect13_crop.jpg,4,26,1.0,255.0,1,2497.8904,108.0,26.0,EAT                                    DON'T EAT,2497.1626,2483.0508,2436.6777
257,1,False,right,avoid,pos,meat40_crop.jpg,4,26,1.0,256.0,2,2499.8994,108.0,26.0,EAT                                    DON'T EAT,2499.1812,2483.0508,2436.6777
258,1,False,right,avoid,pos,meat3_crop.jpg,4,26,1.0,257.0,2,2502.8884,108.0,26.0,EAT                                    DON'T EAT,2501.199,2483.0508,2436.6777
259,1,False,right,avoid,pos,meat29_crop.jpg,4,26,1.0,258.0,2,2503.8628,108.0,26.0,EAT                                    DON'T EAT,2503.2175,2483.0508,2436.6777
260,1,False,right,avoid,pos,meat2_crop.jpg,4,26,1.0,259.0,2,2506.0977,108.0,26.0,EAT                                    DON'T EAT,2505.236,2483.0508,2436.6777
261,3,False,left,approach,pos,cake31_crop.jpg,4,27,1.0,260.0,1,2524.5623,108.0,27.0,EAT                                    DON'T EAT,2523.7178,2519.6978,2436.6777
262,3,True,left,avoid,pos,meat13_crop.jpg,4,27,1.0,261.0,2,2526.443,108.0,27.0,EAT                                    DON'T EAT,2525.7363,2519.6978,2436.6777
263,3,False,left,approach,pos,cake21_crop.jpg,4,27,1.0,262.0,1,2528.567,108.0,27.0,EAT                                    DON'T EAT,2527.755,2519.6978,2436.6777
264,3,False,left,approach,pos,cake39_crop.jpg,4,27,1.0,263.0,1,2530.6042,108.0,27.0,EAT                                    DON'T EAT,2529.7732,2519.6978,2436.6777
265,3,False,left,approach,pos,cake1_crop.jpg,4,27,1.0,264.0,1,2532.3916,108.0,27.0,EAT                                    DON'T EAT,2531.7913,2519.6978,2436.6777
266,3,True,left,avoid,neg,fungus25_crop.jpg,4,27,1.0,265.0,2,2534.5488,108.0,27.0,EAT                                    DON'T EAT,2533.8096,2519.6978,2436.6777
267,3,False,left,approach,pos,cake40_crop.jpg,4,27,1.0,266.0,1,2536.5027,108.0,27.0,EAT                                    DON'T EAT,2535.8281,2519.6978,2436.6777
268,3,False,left,approach,pos,cake9_crop.jpg,4,27,1.0,267.0,1,2538.811,108.0,27.0,EAT                                    DON'T EAT,2537.8464,2519.6978,2436.6777
269,3,False,left,approach,pos,cake2_crop.jpg,4,27,1.0,268.0,1,2541.067,108.0,27.0,EAT                                    DON'T EAT,2539.8645,2519.6978,2436.6777
270,3,False,left,approach,pos,cake37_crop.jpg,4,27,1.0,269.0,1,2542.4626,108.0,27.0,EAT                                    DON'T EAT,2541.883,2519.6978,2436.6777
271,1,False,left,approach,pos,cake26_crop.jpg,4,28,1.0,270.0,1,2561.4712,108.0,28.0,EAT                                    DON'T EAT,2560.6985,2556.6787,2436.6777
272,1,False,left,approach,pos,cake38_crop.jpg,4,28,1.0,271.0,1,2563.2974,108.0,28.0,EAT                                    DON'T EAT,2562.717,2556.6787,2436.6777
273,1,False,left,approach,pos,cake28_crop.jpg,4,28,1.0,272.0,1,2565.335,108.0,28.0,EAT                                    DON'T EAT,2564.7354,2556.6787,2436.6777
274,1,False,left,approach,pos,cake8_crop.jpg,4,28,1.0,273.0,1,2567.4822,108.0,28.0,EAT                                    DON'T EAT,2566.7534,2556.6787,2436.6777
275,1,False,left,approach,pos,cake35_crop.jpg,4,28,1.0,274.0,1,2569.5205,108.0,28.0,EAT                                    DON'T EAT,2568.7722,2556.6787,2436.6777
276,1,False,left,approach,pos,cake13_crop.jpg,4,28,1.0,275.0,1,2571.4873,108.0,28.0,EAT                                    DON'T EAT,2570.7903,2556.6787,2436.6777
277,1,True,left,avoid,neg,fungus32_crop.jpg,4,28,1.0,276.0,2,2573.6099,108.0,28.0,EAT                                    DON'T EAT,2572.8086,2556.6787,2436.6777
278,1,False,left,approach,pos,cake7_crop.jpg,4,28,1.0,277.0,1,2575.688,108.0,28.0,EAT                                    DON'T EAT,2574.8271,2556.6787,2436.6777
279,1,False,left,approach,pos,cake14_crop.jpg,4,28,1.0,278.0,1,2577.512,108.0,28.0,EAT                                    DON'T EAT,2576.8455,2556.6787,2436.6777
280,1,True,left,avoid,pos,meat34_crop.jpg,4,28,1.0,279.0,2,2580.2893,108.0,28.0,EAT                                    DON'T EAT,2578.8638,2556.6787,2436.6777
281,2,False,left,avoid,neg,fungus26_crop.jpg,4,29,1.0,280.0,2,2599.493,108.0,29.0,EAT                                    DON'T EAT,2598.797,2594.7769,2436.6777
282,2,False,left,avoid,neg,fungus34_crop.jpg,4,29,1.0,281.0,2,2601.388,108.0,29.0,EAT                                    DON'T EAT,2600.8152,2594.7769,2436.6777
283,2,False,left,avoid,neg,fungus5_crop.jpg,4,29,1.0,282.0,2,2603.5303,108.0,29.0,EAT                                    DON'T EAT,2602.8337,2594.7769,2436.6777
284,2,False,left,avoid,neg,fungus4_crop.jpg,4,29,1.0,283.0,2,2605.4624,108.0,29.0,EAT                                    DON'T EAT,2604.852,2594.7769,2436.6777
285,2,False,left,avoid,neg,fungus31_crop.jpg,4,29,1.0,284.0,2,2607.47,108.0,29.0,EAT                                    DON'T EAT,2606.8704,2594.7769,2436.6777
286,2,True,left,approach,pos,cake3_crop.jpg,4,29,1.0,285.0,1,2609.5957,108.0,29.0,EAT                                    DON'T EAT,2608.8887,2594.7769,2436.6777
287,2,False,left,avoid,neg,fungus13_crop.jpg,4,29,1.0,286.0,2,2611.6484,108.0,29.0,EAT                                    DON'T EAT,2610.9072,2594.7769,2436.6777
288,2,True,left,approach,neg,insect36_crop.jpg,4,29,1.0,287.0,1,2614.181,108.0,29.0,EAT                                    DON'T EAT,2612.9255,2594.7769,2436.6777
289,2,False,left,avoid,neg,fungus6_crop.jpg,4,29,1.0,288.0,2,2615.7766,108.0,29.0,EAT                                    DON'T EAT,2614.9436,2594.7769,2436.6777
290,2,False,left,avoid,neg,fungus12_crop.jpg,4,29,1.0,289.0,2,2617.68,108.0,29.0,EAT                                    DON'T EAT,2616.962,2594.7769,2436.6777
291,2,False,right,approach,pos,cake19_crop.jpg,4,30,1.0,290.0,1,2634.489,108.0,30.0,EAT                                    DON'T EAT,2633.8262,2629.8062,2436.6777
292,2,False,right,approach,pos,cake34_crop.jpg,4,30,1.0,291.0,1,2636.4873,108.0,30.0,EAT                                    DON'T EAT,2635.8442,2629.8062,2436.6777
293,2,False,right,approach,pos,cake1_crop.jpg,4,30,1.0,292.0,1,2638.5168,108.0,30.0,EAT                                    DON'T EAT,2637.8625,2629.8062,2436.6777
294,2,True,right,avoid,neg,fungus10_crop.jpg,4,30,1.0,293.0,2,2640.5793,108.0,30.0,EAT                                    DON'T EAT,2639.881,2629.8062,2436.6777
295,2,False,right,approach,pos,cake8_crop.jpg,4,30,1.0,294.0,1,2642.6145,108.0,30.0,EAT                                    DON'T EAT,2641.8994,2629.8062,2436.6777
296,2,False,right,approach,pos,cake5_crop.jpg,4,30,1.0,295.0,1,2645.2222,108.0,30.0,EAT                                    DON'T EAT,2643.9177,2629.8062,2436.6777
297,2,False,right,approach,pos,cake40_crop.jpg,4,30,1.0,296.0,1,2646.8215,108.0,30.0,EAT                                    DON'T EAT,2645.936,2629.8062,2436.6777
298,2,False,right,approach,pos,cake28_crop.jpg,4,30,1.0,297.0,1,2648.5027,108.0,30.0,EAT                                    DON'T EAT,2647.9546,2629.8062,2436.6777
299,2,False,right,approach,pos,cake27_crop.jpg,4,30,1.0,298.0,1,2650.6045,108.0,30.0,EAT                                    DON'T EAT,2649.9727,2629.8062,2436.6777
300,2,True,right,avoid,pos,meat20_crop.jpg,4,30,1.0,299.0,2,2652.7107,108.0,30.0,EAT                                    DON'T EAT,2651.9912,2629.8062,2436.6777
301,3,False,right,avoid,neg,fungus35_crop.jpg,4,31,1.0,300.0,2,2668.94,108.0,31.0,EAT                                    DON'T EAT,2668.138,2664.118,2436.6777
302,3,False,right,avoid,neg,fungus15_crop.jpg,4,31,1.0,301.0,2,2670.7158,108.0,31.0,EAT                                    DON'T EAT,2670.1562,2664.118,2436.6777
303,3,False,right,avoid,neg,fungus34_crop.jpg,4,31,1.0,302.0,2,2672.8298,108.0,31.0,EAT                                    DON'T EAT,2672.1746,2664.118,2436.6777
304,3,False,right,avoid,neg,fungus32_crop.jpg,4,31,1.0,303.0,2,2674.8645,108.0,31.0,EAT                                    DON'T EAT,2674.1929,2664.118,2436.6777
305,3,False,right,avoid,neg,fungus39_crop.jpg,4,31,1.0,304.0,2,2676.843,108.0,31.0,EAT                                    DON'T EAT,2676.2112,2664.118,2436.6777
306,3,False,right,avoid,neg,fungus37_crop.jpg,4,31,1.0,305.0,2,2678.955,108.0,31.0,EAT                                    DON'T EAT,2678.2292,2664.118,2436.6777
307,3,True,right,approach,pos,cake21_crop.jpg,4,31,1.0,306.0,1,2681.0178,108.0,31.0,EAT                                    DON'T EAT,2680.248,2664.118,2436.6777
308,3,False,right,avoid,neg,fungus8_crop.jpg,4,31,1.0,307.0,2,2682.95,108.0,31.0,EAT                                    DON'T EAT,2682.2664,2664.118,2436.6777
309,3,False,right,avoid,neg,fungus33_crop.jpg,4,31,1.0,308.0,2,2684.9922,108.0,31.0,EAT                                    DON'T EAT,2684.2847,2664.118,2436.6777
310,3,True,right,approach,neg,insect12_crop.jpg,4,31,1.0,309.0,1,2686.9553,108.0,31.0,EAT                                    DON'T EAT,2686.303,2664.118,2436.6777
311,2,False,right,avoid,pos,meat30_crop.jpg,4,32,1.0,310.0,2,2703.397,108.0,32.0,EAT                                    DON'T EAT,2702.7,2698.68,2436.6777
312,2,False,right,avoid,pos,meat27_crop.jpg,4,32,1.0,311.0,2,2705.52,108.0,32.0,EAT                                    DON'T EAT,2704.718,2698.68,2436.6777
313,2,False,right,avoid,pos,meat36_crop.jpg,4,32,1.0,312.0,2,2707.7146,108.0,32.0,EAT                                    DON'T EAT,2706.7368,2698.68,2436.6777
314,2,True,right,approach,pos,cake35_crop.jpg,4,32,1.0,313.0,2,2709.7688,108.0,32.0,EAT                                    DON'T EAT,2708.7551,2698.68,2436.6777
315,2,False,right,avoid,pos,meat8_crop.jpg,4,32,1.0,314.0,2,2711.7454,108.0,32.0,EAT                                    DON'T EAT,2710.7734,2698.68,2436.6777
316,2,False,right,avoid,pos,meat21_crop.jpg,4,32,1.0,315.0,2,2713.6028,108.0,32.0,EAT                                    DON'T EAT,2712.7915,2698.68,2436.6777
317,2,False,right,avoid,pos,meat6_crop.jpg,4,32,1.0,316.0,2,2715.571,108.0,32.0,EAT                                    DON'T EAT,2714.8098,2698.68,2436.6777
318,2,True,right,approach,neg,insect8_crop.jpg,4,32,1.0,317.0,1,2717.5354,108.0,32.0,EAT                                    DON'T EAT,2716.8281,2698.68,2436.6777
319,2,False,right,avoid,pos,meat22_crop.jpg,4,32,1.0,318.0,2,2720.3,108.0,32.0,EAT                                    DON'T EAT,2718.8464,2698.68,2436.6777
320,2,False,right,avoid,pos,meat39_crop.jpg,4,32,1.0,319.0,2,2721.7507,108.0,32.0,EAT                                    DON'T EAT,2720.865,2698.68,2436.6777
