TrialNumber,n_block,catch,hand,mot,val,stim_name,run_number,num_block,ran,order,response,RT,Subject number,n_b,left_side_resp_label,trial_onset,blk_instr_onset,baseline_onset
1,1,False,right,approach,neg,insect37_crop.jpg,1,1,1.0,0.0,2,1409.2603,81.0,1.0,DON'T EAT                                    EAT,1407.8262,1403.8062,1390.9888
2,1,False,right,approach,neg,insect18_crop.jpg,1,1,1.0,1.0,2,1410.6212,81.0,1.0,DON'T EAT                                    EAT,1409.8445,1403.8062,1390.9888
3,1,False,right,approach,neg,insect26_crop.jpg,1,1,1.0,2.0,2,1412.4968,81.0,1.0,DON'T EAT                                    EAT,1411.8624,1403.8062,1390.9888
4,1,False,right,approach,neg,insect14_crop.jpg,1,1,1.0,3.0,2,1414.5347,81.0,1.0,DON'T EAT                                    EAT,1413.8838,1403.8062,1390.9888
5,1,False,right,approach,neg,insect3_crop.jpg,1,1,1.0,4.0,2,1416.8859,81.0,1.0,DON'T EAT                                    EAT,1415.9015,1403.8062,1390.9888
6,1,False,right,approach,neg,insect35_crop.jpg,1,1,1.0,5.0,2,1418.6602,81.0,1.0,DON'T EAT                                    EAT,1417.918,1403.8062,1390.9888
7,1,False,right,approach,neg,insect13_crop.jpg,1,1,1.0,6.0,2,1420.6499,81.0,1.0,DON'T EAT                                    EAT,1419.9358,1403.8062,1390.9888
8,1,True,right,avoid,pos,meat38_crop.jpg,1,1,1.0,7.0,1,1423.0406,81.0,1.0,DON'T EAT                                    EAT,1421.9541,1403.8062,1390.9888
9,1,True,right,avoid,neg,fungus39_crop.jpg,1,1,1.0,8.0,1,1425.0635,81.0,1.0,DON'T EAT                                    EAT,1423.973,1403.8062,1390.9888
10,1,False,right,approach,neg,insect11_crop.jpg,1,1,1.0,9.0,2,1426.6084,81.0,1.0,DON'T EAT                                    EAT,1425.9911,1403.8062,1390.9888
11,0,False,right,avoid,neg,fungus21_crop.jpg,1,2,1.0,10.0,1,1446.1947,81.0,2.0,DON'T EAT                                    EAT,1444.6229,1440.6034,1390.9888
12,0,True,right,approach,neg,insect8_crop.jpg,1,2,1.0,11.0,2,1447.4487,81.0,2.0,DON'T EAT                                    EAT,1446.6417,1440.6034,1390.9888
13,0,False,right,avoid,neg,fungus8_crop.jpg,1,2,1.0,12.0,1,1449.7388,81.0,2.0,DON'T EAT                                    EAT,1448.66,1440.6034,1390.9888
14,0,False,right,avoid,neg,fungus3_crop.jpg,1,2,1.0,13.0,1,1451.4861,81.0,2.0,DON'T EAT                                    EAT,1450.6785,1440.6034,1390.9888
15,0,False,right,avoid,neg,fungus25_crop.jpg,1,2,1.0,14.0,1,1453.535,81.0,2.0,DON'T EAT                                    EAT,1452.6968,1440.6034,1390.9888
16,0,False,right,avoid,neg,fungus32_crop.jpg,1,2,1.0,15.0,1,1455.5221,81.0,2.0,DON'T EAT                                    EAT,1454.7151,1440.6034,1390.9888
17,0,True,right,approach,pos,cake4_crop.jpg,1,2,1.0,16.0,2,1457.562,81.0,2.0,DON'T EAT                                    EAT,1456.7336,1440.6034,1390.9888
18,0,False,right,avoid,neg,fungus9_crop.jpg,1,2,1.0,17.0,1,1459.5042,81.0,2.0,DON'T EAT                                    EAT,1458.752,1440.6034,1390.9888
19,0,False,right,avoid,neg,fungus16_crop.jpg,1,2,1.0,18.0,1,1461.5543,81.0,2.0,DON'T EAT                                    EAT,1460.7701,1440.6034,1390.9888
20,0,False,right,avoid,neg,fungus6_crop.jpg,1,2,1.0,19.0,1,1463.512,81.0,2.0,DON'T EAT                                    EAT,1462.7887,1440.6034,1390.9888
21,1,False,right,avoid,neg,fungus4_crop.jpg,1,3,1.0,20.0,1,1483.4695,81.0,3.0,DON'T EAT                                    EAT,1482.6716,1478.6516,1390.9888
22,1,False,right,avoid,neg,fungus29_crop.jpg,1,3,1.0,21.0,1,1485.4749,81.0,3.0,DON'T EAT                                    EAT,1484.6901,1478.6516,1390.9888
23,1,False,right,avoid,neg,fungus13_crop.jpg,1,3,1.0,22.0,1,1487.462,81.0,3.0,DON'T EAT                                    EAT,1486.7085,1478.6516,1390.9888
24,1,False,right,avoid,neg,fungus35_crop.jpg,1,3,1.0,23.0,1,1489.4398,81.0,3.0,DON'T EAT                                    EAT,1488.7269,1478.6516,1390.9888
25,1,False,right,avoid,neg,fungus15_crop.jpg,1,3,1.0,24.0,1,1491.3638,81.0,3.0,DON'T EAT                                    EAT,1490.745,1478.6516,1390.9888
26,1,False,right,avoid,neg,fungus5_crop.jpg,1,3,1.0,25.0,1,1493.5288,81.0,3.0,DON'T EAT                                    EAT,1492.7634,1478.6516,1390.9888
27,1,False,right,avoid,neg,fungus1_crop.jpg,1,3,1.0,26.0,1,1495.3586,81.0,3.0,DON'T EAT                                    EAT,1494.7816,1478.6516,1390.9888
28,1,True,right,approach,pos,cake24_crop.jpg,1,3,1.0,27.0,2,1497.7798,81.0,3.0,DON'T EAT                                    EAT,1496.8,1478.6516,1390.9888
29,1,False,right,avoid,neg,fungus31_crop.jpg,1,3,1.0,28.0,1,1499.6455,81.0,3.0,DON'T EAT                                    EAT,1498.8186,1478.6516,1390.9888
30,1,True,right,approach,neg,insect25_crop.jpg,1,3,1.0,29.0,2,1501.706,81.0,3.0,DON'T EAT                                    EAT,1500.8369,1478.6516,1390.9888
31,1,False,left,avoid,neg,fungus2_crop.jpg,1,4,1.0,30.0,1,1518.7295,81.0,4.0,DON'T EAT                                    EAT,1517.9343,1513.9143,1390.9888
32,1,False,left,avoid,neg,fungus19_crop.jpg,1,4,1.0,31.0,1,1520.4937,81.0,4.0,DON'T EAT                                    EAT,1519.9523,1513.9143,1390.9888
33,1,False,left,avoid,neg,fungus10_crop.jpg,1,4,1.0,32.0,1,1522.5928,81.0,4.0,DON'T EAT                                    EAT,1521.9706,1513.9143,1390.9888
34,1,True,left,approach,neg,insect38_crop.jpg,1,4,1.0,33.0,2,1524.7113,81.0,4.0,DON'T EAT                                    EAT,1523.9895,1513.9143,1390.9888
35,1,False,left,avoid,neg,fungus5_crop.jpg,1,4,1.0,34.0,1,1526.8872,81.0,4.0,DON'T EAT                                    EAT,1526.0078,1513.9143,1390.9888
36,1,False,left,avoid,neg,fungus25_crop.jpg,1,4,1.0,35.0,1,1528.7504,81.0,4.0,DON'T EAT                                    EAT,1528.0261,1513.9143,1390.9888
37,1,False,left,avoid,neg,fungus21_crop.jpg,1,4,1.0,36.0,1,1530.6218,81.0,4.0,DON'T EAT                                    EAT,1530.0444,1513.9143,1390.9888
38,1,True,left,approach,pos,cake38_crop.jpg,1,4,1.0,37.0,2,1532.9281,81.0,4.0,DON'T EAT                                    EAT,1532.0623,1513.9143,1390.9888
39,1,False,left,avoid,neg,fungus13_crop.jpg,1,4,1.0,38.0,1,1534.7516,81.0,4.0,DON'T EAT                                    EAT,1534.081,1513.9143,1390.9888
40,1,False,left,avoid,neg,fungus29_crop.jpg,1,4,1.0,39.0,1,1536.7478,81.0,4.0,DON'T EAT                                    EAT,1536.0994,1513.9143,1390.9888
41,2,False,left,avoid,pos,meat4_crop.jpg,1,5,1.0,40.0,1,1555.7172,81.0,5.0,DON'T EAT                                    EAT,1554.5648,1550.5446,1390.9888
42,2,False,left,avoid,pos,meat34_crop.jpg,1,5,1.0,41.0,1,1558.4955,81.0,5.0,DON'T EAT                                    EAT,1556.583,1550.5446,1390.9888
43,2,False,left,avoid,pos,meat5_crop.jpg,1,5,1.0,42.0,1,1559.6714,81.0,5.0,DON'T EAT                                    EAT,1558.6014,1550.5446,1390.9888
44,2,False,left,avoid,pos,meat20_crop.jpg,1,5,1.0,43.0,1,1561.4059,81.0,5.0,DON'T EAT                                    EAT,1560.62,1550.5446,1390.9888
45,2,False,left,avoid,pos,meat40_crop.jpg,1,5,1.0,44.0,1,1563.3818,81.0,5.0,DON'T EAT                                    EAT,1562.6383,1550.5446,1390.9888
46,2,True,left,approach,neg,insect26_crop.jpg,1,5,1.0,45.0,2,1565.4529,81.0,5.0,DON'T EAT                                    EAT,1564.6566,1550.5446,1390.9888
47,2,False,left,avoid,pos,meat3_crop.jpg,1,5,1.0,46.0,1,1567.5553,81.0,5.0,DON'T EAT                                    EAT,1566.6749,1550.5446,1390.9888
48,2,False,left,avoid,pos,meat33_crop.jpg,1,5,1.0,47.0,1,1569.5416,81.0,5.0,DON'T EAT                                    EAT,1568.6932,1550.5446,1390.9888
49,2,False,left,avoid,pos,meat26_crop.jpg,1,5,1.0,48.0,1,1571.3828,81.0,5.0,DON'T EAT                                    EAT,1570.7117,1550.5446,1390.9888
50,2,True,left,approach,pos,cake25_crop.jpg,1,5,1.0,49.0,2,1573.4419,81.0,5.0,DON'T EAT                                    EAT,1572.73,1550.5446,1390.9888
51,2,False,left,approach,neg,insect39_crop.jpg,1,6,1.0,50.0,2,1591.3776,81.0,6.0,DON'T EAT                                    EAT,1590.278,1586.2579,1390.9888
52,2,False,left,approach,neg,insect31_crop.jpg,1,6,1.0,51.0,2,1592.9324,81.0,6.0,DON'T EAT                                    EAT,1592.2959,1586.2579,1390.9888
53,2,False,left,approach,neg,insect29_crop.jpg,1,6,1.0,52.0,2,1595.0466,81.0,6.0,DON'T EAT                                    EAT,1594.3146,1586.2579,1390.9888
54,2,False,left,approach,neg,insect23_crop.jpg,1,6,1.0,53.0,2,1596.9924,81.0,6.0,DON'T EAT                                    EAT,1596.333,1586.2579,1390.9888
55,2,True,left,avoid,neg,fungus24_crop.jpg,1,6,1.0,54.0,1,1598.9899,81.0,6.0,DON'T EAT                                    EAT,1598.3511,1586.2579,1390.9888
56,2,False,left,approach,neg,insect8_crop.jpg,1,6,1.0,55.0,2,1601.0189,81.0,6.0,DON'T EAT                                    EAT,1600.3698,1586.2579,1390.9888
57,2,True,left,avoid,pos,meat27_crop.jpg,1,6,1.0,56.0,1,1603.0985,81.0,6.0,DON'T EAT                                    EAT,1602.3873,1586.2579,1390.9888
58,2,False,left,approach,neg,insect7_crop.jpg,1,6,1.0,57.0,2,1605.1511,81.0,6.0,DON'T EAT                                    EAT,1604.4064,1586.2579,1390.9888
59,2,False,left,approach,neg,insect3_crop.jpg,1,6,1.0,58.0,2,1607.1904,81.0,6.0,DON'T EAT                                    EAT,1606.4247,1586.2579,1390.9888
60,2,False,left,approach,neg,insect32_crop.jpg,1,6,1.0,59.0,2,1609.0824,81.0,6.0,DON'T EAT                                    EAT,1608.443,1586.2579,1390.9888
61,0,False,left,approach,pos,cake19_crop.jpg,1,7,1.0,60.0,2,1629.2655,81.0,7.0,DON'T EAT                                    EAT,1628.3762,1624.3562,1390.9888
62,0,True,left,avoid,neg,fungus3_crop.jpg,1,7,1.0,61.0,1,1631.1814,81.0,7.0,DON'T EAT                                    EAT,1630.3947,1624.3562,1390.9888
63,0,False,left,approach,pos,cake28_crop.jpg,1,7,1.0,62.0,2,1633.1573,81.0,7.0,DON'T EAT                                    EAT,1632.4124,1624.3562,1390.9888
64,0,False,left,approach,pos,cake17_crop.jpg,1,7,1.0,63.0,2,1635.0887,81.0,7.0,DON'T EAT                                    EAT,1634.4312,1624.3562,1390.9888
65,0,False,left,approach,pos,cake32_crop.jpg,1,7,1.0,64.0,2,1637.321,81.0,7.0,DON'T EAT                                    EAT,1636.4497,1624.3562,1390.9888
66,0,False,left,approach,pos,cake22_crop.jpg,1,7,1.0,65.0,2,1639.2535,81.0,7.0,DON'T EAT                                    EAT,1638.468,1624.3562,1390.9888
67,0,False,left,approach,pos,cake1_crop.jpg,1,7,1.0,66.0,2,1641.1263,81.0,7.0,DON'T EAT                                    EAT,1640.4863,1624.3562,1390.9888
68,0,False,left,approach,pos,cake11_crop.jpg,1,7,1.0,67.0,2,1643.0905,81.0,7.0,DON'T EAT                                    EAT,1642.5043,1624.3562,1390.9888
69,0,True,left,avoid,pos,meat7_crop.jpg,1,7,1.0,68.0,1,1645.2234,81.0,7.0,DON'T EAT                                    EAT,1644.523,1624.3562,1390.9888
70,0,False,left,approach,pos,cake40_crop.jpg,1,7,1.0,69.0,2,1647.2328,81.0,7.0,DON'T EAT                                    EAT,1646.5411,1624.3562,1390.9888
71,1,True,left,avoid,pos,meat18_crop.jpg,1,8,1.0,70.0,1,1666.6315,81.0,8.0,DON'T EAT                                    EAT,1665.6073,1661.5873,1390.9888
72,1,False,left,approach,neg,insect2_crop.jpg,1,8,1.0,71.0,2,1668.3385,81.0,8.0,DON'T EAT                                    EAT,1667.6256,1661.5873,1390.9888
73,1,False,left,approach,neg,insect11_crop.jpg,1,8,1.0,72.0,2,1670.1858,81.0,8.0,DON'T EAT                                    EAT,1669.6434,1661.5873,1390.9888
74,1,False,left,approach,neg,insect22_crop.jpg,1,8,1.0,73.0,2,1672.2369,81.0,8.0,DON'T EAT                                    EAT,1671.6622,1661.5873,1390.9888
75,1,False,left,approach,neg,insect33_crop.jpg,1,8,1.0,74.0,2,1674.2358,81.0,8.0,DON'T EAT                                    EAT,1673.6803,1661.5873,1390.9888
76,1,False,left,approach,neg,insect15_crop.jpg,1,8,1.0,75.0,2,1676.2849,81.0,8.0,DON'T EAT                                    EAT,1675.699,1661.5873,1390.9888
77,1,False,left,approach,neg,insect17_crop.jpg,1,8,1.0,76.0,2,1678.2621,81.0,8.0,DON'T EAT                                    EAT,1677.7174,1661.5873,1390.9888
78,1,False,left,approach,neg,insect4_crop.jpg,1,8,1.0,77.0,2,1680.3203,81.0,8.0,DON'T EAT                                    EAT,1679.7354,1661.5873,1390.9888
79,1,False,left,approach,neg,insect6_crop.jpg,1,8,1.0,78.0,2,1682.318,81.0,8.0,DON'T EAT                                    EAT,1681.7539,1661.5873,1390.9888
80,1,True,left,avoid,neg,fungus28_crop.jpg,1,8,1.0,79.0,1,1684.4324,81.0,8.0,DON'T EAT                                    EAT,1683.7722,1661.5873,1390.9888
81,3,True,right,approach,pos,cake14_crop.jpg,2,9,1.0,80.0,2,1772.739,81.0,9.0,DON'T EAT                                    EAT,1771.8956,1767.8754,1755.5911
82,3,False,right,avoid,pos,meat17_crop.jpg,2,9,1.0,81.0,1,1774.5428,81.0,9.0,DON'T EAT                                    EAT,1773.9135,1767.8754,1755.5911
83,3,False,right,avoid,pos,meat40_crop.jpg,2,9,1.0,82.0,1,1776.5083,81.0,9.0,DON'T EAT                                    EAT,1775.9323,1767.8754,1755.5911
84,3,False,right,avoid,pos,meat13_crop.jpg,2,9,1.0,83.0,1,1778.4758,81.0,9.0,DON'T EAT                                    EAT,1777.9508,1767.8754,1755.5911
85,3,False,right,avoid,pos,meat14_crop.jpg,2,9,1.0,84.0,1,1780.7136,81.0,9.0,DON'T EAT                                    EAT,1779.9691,1767.8754,1755.5911
86,3,False,right,avoid,pos,meat5_crop.jpg,2,9,1.0,85.0,1,1782.5166,81.0,9.0,DON'T EAT                                    EAT,1781.9869,1767.8754,1755.5911
87,3,True,right,approach,neg,insect31_crop.jpg,2,9,1.0,86.0,2,1784.5612,81.0,9.0,DON'T EAT                                    EAT,1784.0056,1767.8754,1755.5911
88,3,False,right,avoid,pos,meat35_crop.jpg,2,9,1.0,87.0,1,1786.6213,81.0,9.0,DON'T EAT                                    EAT,1786.024,1767.8754,1755.5911
89,3,False,right,avoid,pos,meat39_crop.jpg,2,9,1.0,88.0,1,1788.6599,81.0,9.0,DON'T EAT                                    EAT,1788.0424,1767.8754,1755.5911
90,3,False,right,avoid,pos,meat21_crop.jpg,2,9,1.0,89.0,1,1790.702,81.0,9.0,DON'T EAT                                    EAT,1790.0605,1767.8754,1755.5911
91,1,False,left,avoid,pos,meat38_crop.jpg,2,10,1.0,90.0,1,1808.7357,81.0,10.0,DON'T EAT                                    EAT,1807.9922,1803.9722,1755.5911
92,1,False,left,avoid,pos,meat21_crop.jpg,2,10,1.0,91.0,1,1810.6196,81.0,10.0,DON'T EAT                                    EAT,1810.0106,1803.9722,1755.5911
93,1,False,left,avoid,pos,meat24_crop.jpg,2,10,1.0,92.0,1,1812.6198,81.0,10.0,DON'T EAT                                    EAT,1812.0286,1803.9722,1755.5911
94,1,True,left,approach,pos,cake39_crop.jpg,2,10,1.0,93.0,2,1814.6658,81.0,10.0,DON'T EAT                                    EAT,1814.0472,1803.9722,1755.5911
95,1,True,left,approach,neg,insect27_crop.jpg,2,10,1.0,94.0,2,1816.6212,81.0,10.0,DON'T EAT                                    EAT,1816.0657,1803.9722,1755.5911
96,1,False,left,avoid,pos,meat6_crop.jpg,2,10,1.0,95.0,1,1818.7117,81.0,10.0,DON'T EAT                                    EAT,1818.0839,1803.9722,1755.5911
97,1,False,left,avoid,pos,meat1_crop.jpg,2,10,1.0,96.0,1,1820.7451,81.0,10.0,DON'T EAT                                    EAT,1820.1024,1803.9722,1755.5911
98,1,False,left,avoid,pos,meat14_crop.jpg,2,10,1.0,97.0,1,1822.6823,81.0,10.0,DON'T EAT                                    EAT,1822.1204,1803.9722,1755.5911
99,1,False,left,avoid,pos,meat22_crop.jpg,2,10,1.0,98.0,1,1824.6735,81.0,10.0,DON'T EAT                                    EAT,1824.1392,1803.9722,1755.5911
100,1,False,left,avoid,pos,meat19_crop.jpg,2,10,1.0,99.0,1,1826.817,81.0,10.0,DON'T EAT                                    EAT,1826.1573,1803.9722,1755.5911
101,0,False,right,approach,neg,insect33_crop.jpg,2,11,1.0,100.0,2,1845.5435,81.0,11.0,DON'T EAT                                    EAT,1844.7892,1840.7859,1755.5911
102,0,True,right,avoid,neg,fungus10_crop.jpg,2,11,1.0,101.0,1,1847.4045,81.0,11.0,DON'T EAT                                    EAT,1846.808,1840.7859,1755.5911
103,0,False,right,approach,neg,insect20_crop.jpg,2,11,1.0,102.0,2,1849.4977,81.0,11.0,DON'T EAT                                    EAT,1848.8263,1840.7859,1755.5911
104,0,False,right,approach,neg,insect5_crop.jpg,2,11,1.0,103.0,2,1851.3483,81.0,11.0,DON'T EAT                                    EAT,1850.8446,1840.7859,1755.5911
105,0,False,right,approach,neg,insect32_crop.jpg,2,11,1.0,104.0,2,1853.4187,81.0,11.0,DON'T EAT                                    EAT,1852.8628,1840.7859,1755.5911
106,0,True,right,avoid,pos,meat8_crop.jpg,2,11,1.0,105.0,1,1855.4877,81.0,11.0,DON'T EAT                                    EAT,1854.881,1840.7859,1755.5911
107,0,False,right,approach,neg,insect10_crop.jpg,2,11,1.0,106.0,1,1857.4565,81.0,11.0,DON'T EAT                                    EAT,1856.8997,1840.7859,1755.5911
108,0,False,right,approach,neg,insect28_crop.jpg,2,11,1.0,107.0,2,1859.5465,81.0,11.0,DON'T EAT                                    EAT,1858.918,1840.7859,1755.5911
109,0,False,right,approach,neg,insect24_crop.jpg,2,11,1.0,108.0,2,1861.5621,81.0,11.0,DON'T EAT                                    EAT,1860.9358,1840.7859,1755.5911
110,0,False,right,approach,neg,insect23_crop.jpg,2,11,1.0,109.0,2,1863.593,81.0,11.0,DON'T EAT                                    EAT,1862.9547,1840.7859,1755.5911
111,3,True,left,avoid,neg,fungus26_crop.jpg,2,12,1.0,110.0,1,1883.4717,81.0,12.0,DON'T EAT                                    EAT,1882.5538,1878.5343,1755.5911
112,3,False,left,approach,neg,insect13_crop.jpg,2,12,1.0,111.0,2,1885.2256,81.0,12.0,DON'T EAT                                    EAT,1884.5726,1878.5343,1755.5911
113,3,False,left,approach,neg,insect34_crop.jpg,2,12,1.0,112.0,2,1887.1665,81.0,12.0,DON'T EAT                                    EAT,1886.591,1878.5343,1755.5911
114,3,False,left,approach,neg,insect30_crop.jpg,2,12,1.0,113.0,2,1889.2378,81.0,12.0,DON'T EAT                                    EAT,1888.6093,1878.5343,1755.5911
115,3,False,left,approach,neg,insect16_crop.jpg,2,12,1.0,114.0,2,1891.173,81.0,12.0,DON'T EAT                                    EAT,1890.6277,1878.5343,1755.5911
116,3,False,left,approach,neg,insect20_crop.jpg,2,12,1.0,115.0,2,1893.1897,81.0,12.0,DON'T EAT                                    EAT,1892.6455,1878.5343,1755.5911
117,3,False,left,approach,neg,insect18_crop.jpg,2,12,1.0,116.0,2,1895.1993,81.0,12.0,DON'T EAT                                    EAT,1894.6643,1878.5343,1755.5911
118,3,False,left,approach,neg,insect35_crop.jpg,2,12,1.0,117.0,2,1897.1853,81.0,12.0,DON'T EAT                                    EAT,1896.6826,1878.5343,1755.5911
119,3,False,left,approach,neg,insect10_crop.jpg,2,12,1.0,118.0,2,1899.205,81.0,12.0,DON'T EAT                                    EAT,1898.701,1878.5343,1755.5911
120,3,True,left,avoid,pos,meat30_crop.jpg,2,12,1.0,119.0,1,1901.3483,81.0,12.0,DON'T EAT                                    EAT,1900.7194,1878.5343,1755.5911
121,3,False,right,approach,neg,insect22_crop.jpg,2,13,1.0,120.0,2,1920.1895,81.0,13.0,DON'T EAT                                    EAT,1919.2349,1915.2147,1755.5911
122,3,False,right,approach,neg,insect9_crop.jpg,2,13,1.0,121.0,2,1921.7815,81.0,13.0,DON'T EAT                                    EAT,1921.2524,1915.2147,1755.5911
123,3,False,right,approach,neg,insect16_crop.jpg,2,13,1.0,122.0,2,1923.7306,81.0,13.0,DON'T EAT                                    EAT,1923.2714,1915.2147,1755.5911
124,3,True,right,avoid,pos,meat7_crop.jpg,2,13,1.0,123.0,1,1926.0146,81.0,13.0,DON'T EAT                                    EAT,1925.2899,1915.2147,1755.5911
125,3,True,right,avoid,neg,fungus27_crop.jpg,2,13,1.0,124.0,1,1928.1047,81.0,13.0,DON'T EAT                                    EAT,1927.3082,1915.2147,1755.5911
126,3,False,right,approach,neg,insect34_crop.jpg,2,13,1.0,125.0,2,1929.9038,81.0,13.0,DON'T EAT                                    EAT,1929.3264,1915.2147,1755.5911
127,3,False,right,approach,neg,insect4_crop.jpg,2,13,1.0,126.0,2,1931.9095,81.0,13.0,DON'T EAT                                    EAT,1931.3448,1915.2147,1755.5911
128,3,False,right,approach,neg,insect15_crop.jpg,2,13,1.0,127.0,2,1933.8658,81.0,13.0,DON'T EAT                                    EAT,1933.3632,1915.2147,1755.5911
129,3,False,right,approach,neg,insect17_crop.jpg,2,13,1.0,128.0,2,1935.8945,81.0,13.0,DON'T EAT                                    EAT,1935.3812,1915.2147,1755.5911
130,3,False,right,approach,neg,insect36_crop.jpg,2,13,1.0,129.0,2,1937.9762,81.0,13.0,DON'T EAT                                    EAT,1937.3999,1915.2147,1755.5911
131,2,False,left,approach,pos,cake3_crop.jpg,2,14,1.0,130.0,2,1955.0203,81.0,14.0,DON'T EAT                                    EAT,1954.2137,1950.1938,1755.5911
132,2,True,left,avoid,neg,fungus22_crop.jpg,2,14,1.0,131.0,1,1956.8917,81.0,14.0,DON'T EAT                                    EAT,1956.2322,1950.1938,1755.5911
133,2,False,left,approach,pos,cake12_crop.jpg,2,14,1.0,132.0,2,1958.931,81.0,14.0,DON'T EAT                                    EAT,1958.2506,1950.1938,1755.5911
134,2,False,left,approach,pos,cake24_crop.jpg,2,14,1.0,133.0,2,1960.9922,81.0,14.0,DON'T EAT                                    EAT,1960.269,1950.1938,1755.5911
135,2,False,left,approach,pos,cake31_crop.jpg,2,14,1.0,134.0,2,1962.8895,81.0,14.0,DON'T EAT                                    EAT,1962.2869,1950.1938,1755.5911
136,2,True,left,avoid,pos,meat29_crop.jpg,2,14,1.0,135.0,1,1964.9977,81.0,14.0,DON'T EAT                                    EAT,1964.3055,1950.1938,1755.5911
137,2,False,left,approach,pos,cake21_crop.jpg,2,14,1.0,136.0,2,1966.9417,81.0,14.0,DON'T EAT                                    EAT,1966.324,1950.1938,1755.5911
138,2,False,left,approach,pos,cake16_crop.jpg,2,14,1.0,137.0,2,1968.856,81.0,14.0,DON'T EAT                                    EAT,1968.3422,1950.1938,1755.5911
139,2,False,left,approach,pos,cake23_crop.jpg,2,14,1.0,138.0,2,1971.0931,81.0,14.0,DON'T EAT                                    EAT,1970.3606,1950.1938,1755.5911
140,2,False,left,approach,pos,cake7_crop.jpg,2,14,1.0,139.0,2,1972.9196,81.0,14.0,DON'T EAT                                    EAT,1972.3784,1950.1938,1755.5911
141,3,True,right,approach,pos,cake30_crop.jpg,2,15,1.0,140.0,2,1992.3606,81.0,15.0,DON'T EAT                                    EAT,1991.6945,1987.6744,1755.5911
142,3,False,right,avoid,neg,fungus23_crop.jpg,2,15,1.0,141.0,1,1994.4873,81.0,15.0,DON'T EAT                                    EAT,1993.7131,1987.6744,1755.5911
143,3,False,right,avoid,neg,fungus11_crop.jpg,2,15,1.0,142.0,1,1996.4431,81.0,15.0,DON'T EAT                                    EAT,1995.7317,1987.6744,1755.5911
144,3,False,right,avoid,neg,fungus2_crop.jpg,2,15,1.0,143.0,1,1998.3552,81.0,15.0,DON'T EAT                                    EAT,1997.7502,1987.6744,1755.5911
145,3,False,right,avoid,neg,fungus24_crop.jpg,2,15,1.0,144.0,1,2000.4171,81.0,15.0,DON'T EAT                                    EAT,1999.7686,1987.6744,1755.5911
146,3,False,right,avoid,neg,fungus30_crop.jpg,2,15,1.0,145.0,1,2002.487,81.0,15.0,DON'T EAT                                    EAT,2001.7867,1987.6744,1755.5911
147,3,False,right,avoid,neg,fungus36_crop.jpg,2,15,1.0,146.0,1,2004.4451,81.0,15.0,DON'T EAT                                    EAT,2003.805,1987.6744,1755.5911
148,3,True,right,approach,neg,insect40_crop.jpg,2,15,1.0,147.0,2,2006.5771,81.0,15.0,DON'T EAT                                    EAT,2005.8235,1987.6744,1755.5911
149,3,False,right,avoid,neg,fungus14_crop.jpg,2,15,1.0,148.0,1,2008.48,81.0,15.0,DON'T EAT                                    EAT,2007.8417,1987.6744,1755.5911
150,3,False,right,avoid,neg,fungus20_crop.jpg,2,15,1.0,149.0,1,2010.6973,81.0,15.0,DON'T EAT                                    EAT,2009.8599,1987.6744,1755.5911
151,3,False,left,approach,pos,cake14_crop.jpg,2,16,1.0,150.0,2,2028.5667,81.0,16.0,DON'T EAT                                    EAT,2027.8751,2023.8551,1755.5911
152,3,False,left,approach,pos,cake27_crop.jpg,2,16,1.0,151.0,2,2030.4585,81.0,16.0,DON'T EAT                                    EAT,2029.8934,2023.8551,1755.5911
153,3,True,left,avoid,pos,meat31_crop.jpg,2,16,1.0,152.0,1,2032.5775,81.0,16.0,DON'T EAT                                    EAT,2031.9116,2023.8551,1755.5911
154,3,False,left,approach,pos,cake18_crop.jpg,2,16,1.0,153.0,2,2034.5792,81.0,16.0,DON'T EAT                                    EAT,2033.9299,2023.8551,1755.5911
155,3,False,left,approach,pos,cake36_crop.jpg,2,16,1.0,154.0,2,2036.4613,81.0,16.0,DON'T EAT                                    EAT,2035.9485,2023.8551,1755.5911
156,3,True,left,avoid,neg,fungus40_crop.jpg,2,16,1.0,155.0,1,2038.6176,81.0,16.0,DON'T EAT                                    EAT,2037.9668,2023.8551,1755.5911
157,3,False,left,approach,pos,cake10_crop.jpg,2,16,1.0,156.0,2,2040.6132,81.0,16.0,DON'T EAT                                    EAT,2039.9851,2023.8551,1755.5911
158,3,False,left,approach,pos,cake37_crop.jpg,2,16,1.0,157.0,2,2042.5667,81.0,16.0,DON'T EAT                                    EAT,2042.0035,2023.8551,1755.5911
159,3,False,left,approach,pos,cake5_crop.jpg,2,16,1.0,158.0,2,2044.5667,81.0,16.0,DON'T EAT                                    EAT,2044.0219,2023.8551,1755.5911
160,3,False,left,approach,pos,cake6_crop.jpg,2,16,1.0,159.0,2,2046.5846,81.0,16.0,DON'T EAT                                    EAT,2046.04,2023.8551,1755.5911
161,3,False,left,avoid,pos,meat12_crop.jpg,3,17,1.0,160.0,1,2136.5742,81.0,17.0,DON'T EAT                                    EAT,2135.7148,2131.6948,2117.9446
162,3,False,left,avoid,pos,meat10_crop.jpg,3,17,1.0,161.0,1,2138.445,81.0,17.0,DON'T EAT                                    EAT,2137.7332,2131.6948,2117.9446
163,3,False,left,avoid,pos,meat13_crop.jpg,3,17,1.0,162.0,1,2140.3694,81.0,17.0,DON'T EAT                                    EAT,2139.7512,2131.6948,2117.9446
164,3,True,left,approach,pos,cake30_crop.jpg,3,17,1.0,163.0,2,2142.5862,81.0,17.0,DON'T EAT                                    EAT,2141.77,2131.6948,2117.9446
165,3,False,left,avoid,pos,meat17_crop.jpg,3,17,1.0,164.0,1,2144.3647,81.0,17.0,DON'T EAT                                    EAT,2143.7883,2131.6948,2117.9446
166,3,False,left,avoid,pos,meat11_crop.jpg,3,17,1.0,165.0,1,2146.5295,81.0,17.0,DON'T EAT                                    EAT,2145.8062,2131.6948,2117.9446
167,3,False,left,avoid,pos,meat37_crop.jpg,3,17,1.0,166.0,1,2148.4531,81.0,17.0,DON'T EAT                                    EAT,2147.825,2131.6948,2117.9446
168,3,False,left,avoid,pos,meat23_crop.jpg,3,17,1.0,167.0,1,2150.3997,81.0,17.0,DON'T EAT                                    EAT,2149.843,2131.6948,2117.9446
169,3,False,left,avoid,pos,meat2_crop.jpg,3,17,1.0,168.0,1,2152.3948,81.0,17.0,DON'T EAT                                    EAT,2151.8613,2131.6948,2117.9446
170,3,True,left,approach,neg,insect21_crop.jpg,3,17,1.0,169.0,2,2154.5303,81.0,17.0,DON'T EAT                                    EAT,2153.88,2131.6948,2117.9446
171,1,False,right,avoid,pos,meat28_crop.jpg,3,18,1.0,170.0,1,2172.38,81.0,18.0,DON'T EAT                                    EAT,2171.5947,2167.5747,2117.9446
172,1,False,right,avoid,pos,meat31_crop.jpg,3,18,1.0,171.0,1,2174.2114,81.0,18.0,DON'T EAT                                    EAT,2173.613,2167.5747,2117.9446
173,1,False,right,avoid,pos,meat23_crop.jpg,3,18,1.0,172.0,1,2176.1018,81.0,18.0,DON'T EAT                                    EAT,2175.631,2167.5747,2117.9446
174,1,False,right,avoid,pos,meat2_crop.jpg,3,18,1.0,173.0,1,2178.1282,81.0,18.0,DON'T EAT                                    EAT,2177.6492,2167.5747,2117.9446
175,1,False,right,avoid,pos,meat25_crop.jpg,3,18,1.0,174.0,1,2180.306,81.0,18.0,DON'T EAT                                    EAT,2179.668,2167.5747,2117.9446
176,1,False,right,avoid,pos,meat24_crop.jpg,3,18,1.0,175.0,1,2182.191,81.0,18.0,DON'T EAT                                    EAT,2181.6863,2167.5747,2117.9446
177,1,False,right,avoid,pos,meat33_crop.jpg,3,18,1.0,176.0,1,2184.216,81.0,18.0,DON'T EAT                                    EAT,2183.7046,2167.5747,2117.9446
178,1,False,right,avoid,pos,meat19_crop.jpg,3,18,1.0,177.0,1,2186.2776,81.0,18.0,DON'T EAT                                    EAT,2185.723,2167.5747,2117.9446
179,1,True,right,approach,neg,insect12_crop.jpg,3,18,1.0,178.0,2,2188.3914,81.0,18.0,DON'T EAT                                    EAT,2187.741,2167.5747,2117.9446
180,1,True,right,approach,pos,cake9_crop.jpg,3,18,1.0,179.0,2,2190.5767,81.0,18.0,DON'T EAT                                    EAT,2189.7598,2167.5747,2117.9446
181,2,False,left,avoid,neg,fungus15_crop.jpg,3,19,1.0,180.0,1,2207.1033,81.0,19.0,DON'T EAT                                    EAT,2206.3398,2202.32,2117.9446
182,2,False,left,avoid,neg,fungus18_crop.jpg,3,19,1.0,181.0,1,2208.9038,81.0,19.0,DON'T EAT                                    EAT,2208.3586,2202.32,2117.9446
183,2,False,left,avoid,neg,fungus37_crop.jpg,3,19,1.0,182.0,1,2211.0803,81.0,19.0,DON'T EAT                                    EAT,2210.3767,2202.32,2117.9446
184,2,True,left,approach,pos,cake4_crop.jpg,3,19,1.0,183.0,2,2213.0698,81.0,19.0,DON'T EAT                                    EAT,2212.3945,2202.32,2117.9446
185,2,False,left,avoid,neg,fungus17_crop.jpg,3,19,1.0,184.0,1,2215.1152,81.0,19.0,DON'T EAT                                    EAT,2214.4133,2202.32,2117.9446
186,2,False,left,avoid,neg,fungus27_crop.jpg,3,19,1.0,185.0,1,2216.9353,81.0,19.0,DON'T EAT                                    EAT,2216.432,2202.32,2117.9446
187,2,False,left,avoid,neg,fungus30_crop.jpg,3,19,1.0,186.0,1,2218.984,81.0,19.0,DON'T EAT                                    EAT,2218.45,2202.32,2117.9446
188,2,False,left,avoid,neg,fungus33_crop.jpg,3,19,1.0,187.0,1,2221.0117,81.0,19.0,DON'T EAT                                    EAT,2220.4683,2202.32,2117.9446
189,2,False,left,avoid,neg,fungus16_crop.jpg,3,19,1.0,188.0,1,2223.132,81.0,19.0,DON'T EAT                                    EAT,2222.4863,2202.32,2117.9446
190,2,True,left,approach,neg,insect1_crop.jpg,3,19,1.0,189.0,1,2225.0266,81.0,19.0,DON'T EAT                                    EAT,2224.505,2202.32,2117.9446
191,2,False,right,approach,pos,cake19_crop.jpg,3,20,1.0,190.0,2,2243.335,81.0,20.0,DON'T EAT                                    EAT,2242.4697,2238.4502,2117.9446
192,2,False,right,approach,pos,cake28_crop.jpg,3,20,1.0,191.0,2,2245.065,81.0,20.0,DON'T EAT                                    EAT,2244.4885,2238.4502,2117.9446
193,2,True,right,avoid,pos,meat30_crop.jpg,3,20,1.0,192.0,1,2247.3123,81.0,20.0,DON'T EAT                                    EAT,2246.5068,2238.4502,2117.9446
194,2,False,right,approach,pos,cake10_crop.jpg,3,20,1.0,193.0,2,2249.3108,81.0,20.0,DON'T EAT                                    EAT,2248.5251,2238.4502,2117.9446
195,2,False,right,approach,pos,cake16_crop.jpg,3,20,1.0,194.0,2,2251.1094,81.0,20.0,DON'T EAT                                    EAT,2250.5435,2238.4502,2117.9446
196,2,False,right,approach,pos,cake34_crop.jpg,3,20,1.0,195.0,2,2253.5308,81.0,20.0,DON'T EAT                                    EAT,2252.5615,2238.4502,2117.9446
197,2,False,right,approach,pos,cake18_crop.jpg,3,20,1.0,196.0,2,2255.4612,81.0,20.0,DON'T EAT                                    EAT,2254.58,2238.4502,2117.9446
198,2,True,right,avoid,neg,fungus26_crop.jpg,3,20,1.0,197.0,1,2257.2087,81.0,20.0,DON'T EAT                                    EAT,2256.5986,2238.4502,2117.9446
199,2,False,right,approach,pos,cake11_crop.jpg,3,20,1.0,198.0,2,2259.2566,81.0,20.0,DON'T EAT                                    EAT,2258.617,2238.4502,2117.9446
200,2,False,right,approach,pos,cake3_crop.jpg,3,20,1.0,199.0,2,2261.2437,81.0,20.0,DON'T EAT                                    EAT,2260.6353,2238.4502,2117.9446
201,1,True,left,avoid,neg,fungus1_crop.jpg,3,21,1.0,200.0,1,2278.3862,81.0,21.0,DON'T EAT                                    EAT,2277.716,2273.696,2117.9446
202,1,False,left,approach,pos,cake33_crop.jpg,3,21,1.0,201.0,2,2280.4995,81.0,21.0,DON'T EAT                                    EAT,2279.7346,2273.696,2117.9446
203,1,False,left,approach,pos,cake15_crop.jpg,3,21,1.0,202.0,2,2282.3503,81.0,21.0,DON'T EAT                                    EAT,2281.753,2273.696,2117.9446
204,1,False,left,approach,pos,cake34_crop.jpg,3,21,1.0,203.0,2,2284.3806,81.0,21.0,DON'T EAT                                    EAT,2283.7715,2273.696,2117.9446
205,1,False,left,approach,pos,cake35_crop.jpg,3,21,1.0,204.0,2,2286.4094,81.0,21.0,DON'T EAT                                    EAT,2285.7896,2273.696,2117.9446
206,1,False,left,approach,pos,cake26_crop.jpg,3,21,1.0,205.0,2,2288.3748,81.0,21.0,DON'T EAT                                    EAT,2287.8079,2273.696,2117.9446
207,1,False,left,approach,pos,cake13_crop.jpg,3,21,1.0,206.0,2,2290.403,81.0,21.0,DON'T EAT                                    EAT,2289.8262,2273.696,2117.9446
208,1,False,left,approach,pos,cake8_crop.jpg,3,21,1.0,207.0,2,2292.4836,81.0,21.0,DON'T EAT                                    EAT,2291.8445,2273.696,2117.9446
209,1,True,left,avoid,pos,meat35_crop.jpg,3,21,1.0,208.0,1,2294.66,81.0,21.0,DON'T EAT                                    EAT,2293.863,2273.696,2117.9446
210,1,False,left,approach,pos,cake2_crop.jpg,3,21,1.0,209.0,2,2296.7734,81.0,21.0,DON'T EAT                                    EAT,2295.881,2273.696,2117.9446
211,0,True,left,approach,pos,cake9_crop.jpg,3,22,1.0,210.0,2,2313.9426,81.0,22.0,DON'T EAT                                    EAT,2313.2292,2309.209,2117.9446
212,0,False,left,avoid,pos,meat39_crop.jpg,3,22,1.0,211.0,1,2316.1501,81.0,22.0,DON'T EAT                                    EAT,2315.2473,2309.209,2117.9446
213,0,False,left,avoid,pos,meat28_crop.jpg,3,22,1.0,212.0,1,2318.1035,81.0,22.0,DON'T EAT                                    EAT,2317.2656,2309.209,2117.9446
214,0,False,left,avoid,pos,meat16_crop.jpg,3,22,1.0,213.0,1,2319.9465,81.0,22.0,DON'T EAT                                    EAT,2319.2842,2309.209,2117.9446
215,0,True,left,approach,neg,insect25_crop.jpg,3,22,1.0,214.0,2,2322.0051,81.0,22.0,DON'T EAT                                    EAT,2321.3025,2309.209,2117.9446
216,0,False,left,avoid,pos,meat9_crop.jpg,3,22,1.0,215.0,1,2323.9175,81.0,22.0,DON'T EAT                                    EAT,2323.3206,2309.209,2117.9446
217,0,False,left,avoid,pos,meat36_crop.jpg,3,22,1.0,216.0,1,2325.9033,81.0,22.0,DON'T EAT                                    EAT,2325.339,2309.209,2117.9446
218,0,False,left,avoid,pos,meat15_crop.jpg,3,22,1.0,217.0,1,2327.9243,81.0,22.0,DON'T EAT                                    EAT,2327.3574,2309.209,2117.9446
219,0,False,left,avoid,pos,meat32_crop.jpg,3,22,1.0,218.0,1,2329.9636,81.0,22.0,DON'T EAT                                    EAT,2329.3757,2309.209,2117.9446
220,0,False,left,avoid,pos,meat25_crop.jpg,3,22,1.0,219.0,1,2332.015,81.0,22.0,DON'T EAT                                    EAT,2331.394,2309.209,2117.9446
221,2,True,right,approach,pos,cake13_crop.jpg,3,23,1.0,220.0,2,2351.561,81.0,23.0,DON'T EAT                                    EAT,2350.7764,2346.7732,2117.9446
222,2,False,right,avoid,neg,fungus7_crop.jpg,3,23,1.0,221.0,1,2353.4504,81.0,23.0,DON'T EAT                                    EAT,2352.795,2346.7732,2117.9446
223,2,False,right,avoid,neg,fungus18_crop.jpg,3,23,1.0,222.0,1,2355.359,81.0,23.0,DON'T EAT                                    EAT,2354.8135,2346.7732,2117.9446
224,2,False,right,avoid,neg,fungus40_crop.jpg,3,23,1.0,223.0,1,2357.5012,81.0,23.0,DON'T EAT                                    EAT,2356.832,2346.7732,2117.9446
225,2,False,right,avoid,neg,fungus33_crop.jpg,3,23,1.0,224.0,1,2359.4248,81.0,23.0,DON'T EAT                                    EAT,2358.85,2346.7732,2117.9446
226,2,False,right,avoid,neg,fungus17_crop.jpg,3,23,1.0,225.0,1,2361.5076,81.0,23.0,DON'T EAT                                    EAT,2360.8687,2346.7732,2117.9446
227,2,False,right,avoid,neg,fungus38_crop.jpg,3,23,1.0,226.0,1,2363.577,81.0,23.0,DON'T EAT                                    EAT,2362.8865,2346.7732,2117.9446
228,2,False,right,avoid,neg,fungus37_crop.jpg,3,23,1.0,227.0,1,2365.5537,81.0,23.0,DON'T EAT                                    EAT,2364.9053,2346.7732,2117.9446
229,2,False,right,avoid,neg,fungus34_crop.jpg,3,23,1.0,228.0,1,2367.5627,81.0,23.0,DON'T EAT                                    EAT,2366.9236,2346.7732,2117.9446
230,2,True,right,approach,neg,insect7_crop.jpg,3,23,1.0,229.0,2,2369.634,81.0,23.0,DON'T EAT                                    EAT,2368.942,2346.7732,2117.9446
231,0,False,right,avoid,pos,meat20_crop.jpg,3,24,1.0,230.0,1,2386.9133,81.0,24.0,DON'T EAT                                    EAT,2386.1897,2382.1697,2117.9446
232,0,False,right,avoid,pos,meat3_crop.jpg,3,24,1.0,231.0,1,2388.7427,81.0,24.0,DON'T EAT                                    EAT,2388.2083,2382.1697,2117.9446
233,0,False,right,avoid,pos,meat36_crop.jpg,3,24,1.0,232.0,1,2390.792,81.0,24.0,DON'T EAT                                    EAT,2390.2263,2382.1697,2117.9446
234,0,True,right,approach,neg,insect27_crop.jpg,3,24,1.0,233.0,2,2393.036,81.0,24.0,DON'T EAT                                    EAT,2392.2449,2382.1697,2117.9446
235,0,True,right,approach,pos,cake26_crop.jpg,3,24,1.0,234.0,2,2395.0369,81.0,24.0,DON'T EAT                                    EAT,2394.263,2382.1697,2117.9446
236,0,False,right,avoid,pos,meat9_crop.jpg,3,24,1.0,235.0,1,2396.9622,81.0,24.0,DON'T EAT                                    EAT,2396.281,2382.1697,2117.9446
237,0,False,right,avoid,pos,meat16_crop.jpg,3,24,1.0,236.0,1,2399.0227,81.0,24.0,DON'T EAT                                    EAT,2398.2998,2382.1697,2117.9446
238,0,False,right,avoid,pos,meat1_crop.jpg,3,24,1.0,237.0,1,2401.207,81.0,24.0,DON'T EAT                                    EAT,2400.318,2382.1697,2117.9446
239,0,False,right,avoid,pos,meat18_crop.jpg,3,24,1.0,238.0,1,2402.919,81.0,24.0,DON'T EAT                                    EAT,2402.3364,2382.1697,2117.9446
240,0,False,right,avoid,pos,meat11_crop.jpg,3,24,1.0,239.0,1,2404.9624,81.0,24.0,DON'T EAT                                    EAT,2404.3547,2382.1697,2117.9446
241,0,True,left,avoid,pos,meat8_crop.jpg,4,25,1.0,240.0,1,2496.1062,81.0,25.0,DON'T EAT                                    EAT,2495.247,2491.227,2478.802
242,0,False,left,approach,neg,insect9_crop.jpg,4,25,1.0,241.0,2,2497.852,81.0,25.0,DON'T EAT                                    EAT,2497.2654,2491.227,2478.802
243,0,False,left,approach,neg,insect12_crop.jpg,4,25,1.0,242.0,2,2499.8284,81.0,25.0,DON'T EAT                                    EAT,2499.2837,2491.227,2478.802
244,0,False,left,approach,neg,insect24_crop.jpg,4,25,1.0,243.0,2,2501.837,81.0,25.0,DON'T EAT                                    EAT,2501.302,2491.227,2478.802
245,0,True,left,avoid,neg,fungus8_crop.jpg,4,25,1.0,244.0,1,2503.9272,81.0,25.0,DON'T EAT                                    EAT,2503.32,2491.227,2478.802
246,0,False,left,approach,neg,insect37_crop.jpg,4,25,1.0,245.0,2,2505.9468,81.0,25.0,DON'T EAT                                    EAT,2505.3386,2491.227,2478.802
247,0,False,left,approach,neg,insect19_crop.jpg,4,25,1.0,246.0,2,2507.9019,81.0,25.0,DON'T EAT                                    EAT,2507.357,2491.227,2478.802
248,0,False,left,approach,neg,insect28_crop.jpg,4,25,1.0,247.0,2,2509.9937,81.0,25.0,DON'T EAT                                    EAT,2509.3752,2491.227,2478.802
249,0,False,left,approach,neg,insect36_crop.jpg,4,25,1.0,248.0,2,2511.9924,81.0,25.0,DON'T EAT                                    EAT,2511.3938,2491.227,2478.802
250,0,False,left,approach,neg,insect14_crop.jpg,4,25,1.0,249.0,2,2514.0295,81.0,25.0,DON'T EAT                                    EAT,2513.412,2491.227,2478.802
251,2,False,right,approach,neg,insect1_crop.jpg,4,26,1.0,250.0,2,2533.7073,81.0,26.0,DON'T EAT                                    EAT,2533.0613,2529.0417,2478.802
252,2,False,right,approach,neg,insect38_crop.jpg,4,26,1.0,251.0,2,2535.5925,81.0,26.0,DON'T EAT                                    EAT,2535.08,2529.0417,2478.802
253,2,False,right,approach,neg,insect2_crop.jpg,4,26,1.0,252.0,2,2537.6223,81.0,26.0,DON'T EAT                                    EAT,2537.0986,2529.0417,2478.802
254,2,False,right,approach,neg,insect39_crop.jpg,4,26,1.0,253.0,2,2539.8398,81.0,26.0,DON'T EAT                                    EAT,2539.117,2529.0417,2478.802
255,2,True,right,avoid,neg,fungus19_crop.jpg,4,26,1.0,254.0,1,2541.8801,81.0,26.0,DON'T EAT                                    EAT,2541.1353,2529.0417,2478.802
256,2,False,right,approach,neg,insect29_crop.jpg,4,26,1.0,255.0,2,2543.7803,81.0,26.0,DON'T EAT                                    EAT,2543.153,2529.0417,2478.802
257,2,False,right,approach,neg,insect19_crop.jpg,4,26,1.0,256.0,2,2545.7705,81.0,26.0,DON'T EAT                                    EAT,2545.1719,2529.0417,2478.802
258,2,True,right,avoid,pos,meat15_crop.jpg,4,26,1.0,257.0,1,2548.0483,81.0,26.0,DON'T EAT                                    EAT,2547.19,2529.0417,2478.802
259,2,False,right,approach,neg,insect6_crop.jpg,4,26,1.0,258.0,2,2549.8684,81.0,26.0,DON'T EAT                                    EAT,2549.2087,2529.0417,2478.802
260,2,False,right,approach,neg,insect30_crop.jpg,4,26,1.0,259.0,2,2551.7708,81.0,26.0,DON'T EAT                                    EAT,2551.227,2529.0417,2478.802
261,3,False,right,approach,pos,cake6_crop.jpg,4,27,1.0,260.0,2,2571.0867,81.0,27.0,DON'T EAT                                    EAT,2570.3928,2566.3728,2478.802
262,3,True,right,avoid,neg,fungus12_crop.jpg,4,27,1.0,261.0,1,2573.1194,81.0,27.0,DON'T EAT                                    EAT,2572.4111,2566.3728,2478.802
263,3,False,right,approach,pos,cake29_crop.jpg,4,27,1.0,262.0,2,2575.0808,81.0,27.0,DON'T EAT                                    EAT,2574.4297,2566.3728,2478.802
264,3,True,right,avoid,pos,meat27_crop.jpg,4,27,1.0,263.0,1,2577.225,81.0,27.0,DON'T EAT                                    EAT,2576.448,2566.3728,2478.802
265,3,False,right,approach,pos,cake35_crop.jpg,4,27,1.0,264.0,2,2579.256,81.0,27.0,DON'T EAT                                    EAT,2578.4658,2566.3728,2478.802
266,3,False,right,approach,pos,cake8_crop.jpg,4,27,1.0,265.0,2,2581.0977,81.0,27.0,DON'T EAT                                    EAT,2580.4841,2566.3728,2478.802
267,3,False,right,approach,pos,cake21_crop.jpg,4,27,1.0,266.0,2,2583.273,81.0,27.0,DON'T EAT                                    EAT,2582.5024,2566.3728,2478.802
268,3,False,right,approach,pos,cake7_crop.jpg,4,27,1.0,267.0,2,2585.0967,81.0,27.0,DON'T EAT                                    EAT,2584.521,2566.3728,2478.802
269,3,False,right,approach,pos,cake31_crop.jpg,4,27,1.0,268.0,2,2587.0837,81.0,27.0,DON'T EAT                                    EAT,2586.5398,2566.3728,2478.802
270,3,False,right,approach,pos,cake32_crop.jpg,4,27,1.0,269.0,2,2589.1418,81.0,27.0,DON'T EAT                                    EAT,2588.5574,2566.3728,2478.802
271,0,False,left,avoid,neg,fungus4_crop.jpg,4,28,1.0,270.0,1,2606.5842,81.0,28.0,DON'T EAT                                    EAT,2605.8723,2601.8523,2478.802
272,0,False,left,avoid,neg,fungus31_crop.jpg,4,28,1.0,271.0,1,2608.5706,81.0,28.0,DON'T EAT                                    EAT,2607.8906,2601.8523,2478.802
273,0,True,left,approach,pos,cake29_crop.jpg,4,28,1.0,272.0,2,2610.5178,81.0,28.0,DON'T EAT                                    EAT,2609.909,2601.8523,2478.802
274,0,False,left,avoid,neg,fungus38_crop.jpg,4,28,1.0,273.0,1,2612.5571,81.0,28.0,DON'T EAT                                    EAT,2611.9275,2601.8523,2478.802
275,0,True,left,approach,neg,insect40_crop.jpg,4,28,1.0,274.0,2,2614.7002,81.0,28.0,DON'T EAT                                    EAT,2613.9458,2601.8523,2478.802
276,0,False,left,avoid,neg,fungus23_crop.jpg,4,28,1.0,275.0,1,2616.7405,81.0,28.0,DON'T EAT                                    EAT,2615.9639,2601.8523,2478.802
277,0,False,left,avoid,neg,fungus6_crop.jpg,4,28,1.0,276.0,1,2618.621,81.0,28.0,DON'T EAT                                    EAT,2617.9824,2601.8523,2478.802
278,0,False,left,avoid,neg,fungus39_crop.jpg,4,28,1.0,277.0,1,2620.7432,81.0,28.0,DON'T EAT                                    EAT,2620.0007,2601.8523,2478.802
279,0,False,left,avoid,neg,fungus34_crop.jpg,4,28,1.0,278.0,1,2622.6592,81.0,28.0,DON'T EAT                                    EAT,2622.0193,2601.8523,2478.802
280,0,False,left,avoid,neg,fungus20_crop.jpg,4,28,1.0,279.0,1,2624.751,81.0,28.0,DON'T EAT                                    EAT,2624.0376,2601.8523,2478.802
281,0,False,right,approach,pos,cake17_crop.jpg,4,29,1.0,280.0,2,2644.4336,81.0,29.0,DON'T EAT                                    EAT,2643.754,2639.7336,2478.802
282,0,False,right,approach,pos,cake15_crop.jpg,4,29,1.0,281.0,2,2646.2847,81.0,29.0,DON'T EAT                                    EAT,2645.7717,2639.7336,2478.802
283,0,False,right,approach,pos,cake39_crop.jpg,4,29,1.0,282.0,2,2648.512,81.0,29.0,DON'T EAT                                    EAT,2647.7905,2639.7336,2478.802
284,0,False,right,approach,pos,cake36_crop.jpg,4,29,1.0,283.0,2,2650.4375,81.0,29.0,DON'T EAT                                    EAT,2649.809,2639.7336,2478.802
285,0,False,right,approach,pos,cake38_crop.jpg,4,29,1.0,284.0,2,2652.352,81.0,29.0,DON'T EAT                                    EAT,2651.8271,2639.7336,2478.802
286,0,False,right,approach,pos,cake40_crop.jpg,4,29,1.0,285.0,2,2654.4119,81.0,29.0,DON'T EAT                                    EAT,2653.8452,2639.7336,2478.802
287,0,False,right,approach,pos,cake37_crop.jpg,4,29,1.0,286.0,2,2656.5454,81.0,29.0,DON'T EAT                                    EAT,2655.8638,2639.7336,2478.802
288,0,True,right,avoid,pos,meat12_crop.jpg,4,29,1.0,287.0,1,2658.5435,81.0,29.0,DON'T EAT                                    EAT,2657.8823,2639.7336,2478.802
289,0,False,right,approach,pos,cake22_crop.jpg,4,29,1.0,288.0,2,2660.4858,81.0,29.0,DON'T EAT                                    EAT,2659.9006,2639.7336,2478.802
290,0,True,right,avoid,neg,fungus22_crop.jpg,4,29,1.0,289.0,1,2662.7153,81.0,29.0,DON'T EAT                                    EAT,2661.9192,2639.7336,2478.802
291,2,False,right,avoid,pos,meat4_crop.jpg,4,30,1.0,290.0,1,2682.2085,81.0,30.0,DON'T EAT                                    EAT,2681.3518,2677.3318,2478.802
292,2,False,right,avoid,pos,meat10_crop.jpg,4,30,1.0,291.0,1,2683.9639,81.0,30.0,DON'T EAT                                    EAT,2683.3696,2677.3318,2478.802
293,2,False,right,avoid,pos,meat29_crop.jpg,4,30,1.0,292.0,1,2686.0356,81.0,30.0,DON'T EAT                                    EAT,2685.388,2677.3318,2478.802
294,2,False,right,avoid,pos,meat37_crop.jpg,4,30,1.0,293.0,1,2688.1772,81.0,30.0,DON'T EAT                                    EAT,2687.4062,2677.3318,2478.802
295,2,False,right,avoid,pos,meat26_crop.jpg,4,30,1.0,294.0,1,2690.1643,81.0,30.0,DON'T EAT                                    EAT,2689.4246,2677.3318,2478.802
296,2,False,right,avoid,pos,meat6_crop.jpg,4,30,1.0,295.0,1,2692.2136,81.0,30.0,DON'T EAT                                    EAT,2691.4429,2677.3318,2478.802
297,2,False,right,avoid,pos,meat32_crop.jpg,4,30,1.0,296.0,1,2694.5488,81.0,30.0,DON'T EAT                                    EAT,2693.4614,2677.3318,2478.802
298,2,True,right,approach,neg,insect21_crop.jpg,4,30,1.0,297.0,2,2696.172,81.0,30.0,DON'T EAT                                    EAT,2695.48,2677.3318,2478.802
299,2,False,right,avoid,pos,meat34_crop.jpg,4,30,1.0,298.0,1,2698.4521,81.0,30.0,DON'T EAT                                    EAT,2697.4985,2677.3318,2478.802
300,2,True,right,approach,pos,cake2_crop.jpg,4,30,1.0,299.0,2,2700.3982,81.0,30.0,DON'T EAT                                    EAT,2699.5168,2677.3318,2478.802
301,1,True,right,avoid,pos,meat22_crop.jpg,4,31,1.0,300.0,1,2719.1487,81.0,31.0,DON'T EAT                                    EAT,2718.3323,2714.3289,2478.802
302,1,False,right,approach,pos,cake20_crop.jpg,4,31,1.0,301.0,2,2720.9783,81.0,31.0,DON'T EAT                                    EAT,2720.3508,2714.3289,2478.802
303,1,False,right,approach,pos,cake23_crop.jpg,4,31,1.0,302.0,2,2723.0068,81.0,31.0,DON'T EAT                                    EAT,2722.3694,2714.3289,2478.802
304,1,True,right,avoid,neg,fungus28_crop.jpg,4,31,1.0,303.0,1,2725.0576,81.0,31.0,DON'T EAT                                    EAT,2724.3875,2714.3289,2478.802
305,1,False,right,approach,pos,cake5_crop.jpg,4,31,1.0,304.0,2,2727.3289,81.0,31.0,DON'T EAT                                    EAT,2726.406,2714.3289,2478.802
306,1,False,right,approach,pos,cake12_crop.jpg,4,31,1.0,305.0,2,2729.3232,81.0,31.0,DON'T EAT                                    EAT,2728.4243,2714.3289,2478.802
307,1,False,right,approach,pos,cake25_crop.jpg,4,31,1.0,306.0,2,2731.1128,81.0,31.0,DON'T EAT                                    EAT,2730.4424,2714.3289,2478.802
308,1,False,right,approach,pos,cake1_crop.jpg,4,31,1.0,307.0,2,2733.077,81.0,31.0,DON'T EAT                                    EAT,2732.461,2714.3289,2478.802
309,1,False,right,approach,pos,cake33_crop.jpg,4,31,1.0,308.0,2,2736.2317,81.0,31.0,DON'T EAT                                    EAT,2734.4792,2714.3289,2478.802
310,1,False,right,approach,pos,cake27_crop.jpg,4,31,1.0,309.0,2,2737.0847,81.0,31.0,DON'T EAT                                    EAT,2736.4978,2714.3289,2478.802
311,3,False,left,avoid,neg,fungus11_crop.jpg,4,32,1.0,310.0,1,2756.918,81.0,32.0,DON'T EAT                                    EAT,2756.2139,2752.194,2478.802
312,3,False,left,avoid,neg,fungus36_crop.jpg,4,32,1.0,311.0,1,2758.8604,81.0,32.0,DON'T EAT                                    EAT,2758.2324,2752.194,2478.802
313,3,True,left,approach,pos,cake20_crop.jpg,4,32,1.0,312.0,2,2760.9004,81.0,32.0,DON'T EAT                                    EAT,2760.2507,2752.194,2478.802
314,3,True,left,approach,neg,insect5_crop.jpg,4,32,1.0,313.0,2,2763.0095,81.0,32.0,DON'T EAT                                    EAT,2762.2693,2752.194,2478.802
315,3,False,left,avoid,neg,fungus9_crop.jpg,4,32,1.0,314.0,1,2765.061,81.0,32.0,DON'T EAT                                    EAT,2764.287,2752.194,2478.802
316,3,False,left,avoid,neg,fungus7_crop.jpg,4,32,1.0,315.0,1,2766.977,81.0,32.0,DON'T EAT                                    EAT,2766.306,2752.194,2478.802
317,3,False,left,avoid,neg,fungus14_crop.jpg,4,32,1.0,316.0,1,2768.9324,81.0,32.0,DON'T EAT                                    EAT,2768.3242,2752.194,2478.802
318,3,False,left,avoid,neg,fungus35_crop.jpg,4,32,1.0,317.0,1,2771.0876,81.0,32.0,DON'T EAT                                    EAT,2770.3425,2752.194,2478.802
319,3,False,left,avoid,neg,fungus32_crop.jpg,4,32,1.0,318.0,1,2772.9883,81.0,32.0,DON'T EAT                                    EAT,2772.3606,2752.194,2478.802
320,3,False,left,avoid,neg,fungus12_crop.jpg,4,32,1.0,319.0,1,2775.2185,81.0,32.0,DON'T EAT                                    EAT,2774.3792,2752.194,2478.802
