TrialNumber,n_block,catch,hand,mot,val,stim_name,run_number,num_block,ran,order,response,RT,Subject number,n_b,left_side_resp_label,trial_onset,blk_instr_onset,baseline_onset
1,1,False,left,approach,neg,insect9_crop.jpg,1,1,1.0,0.0,1,1466.604,98.0,1.0,EAT                                    DON'T EAT,1465.6553,1461.6355,1451.3812
2,1,True,left,avoid,neg,fungus32_crop.jpg,1,1,1.0,1.0,2,1468.9209,98.0,1.0,EAT                                    DON'T EAT,1467.6738,1461.6355,1451.3812
3,1,False,left,approach,neg,insect31_crop.jpg,1,1,1.0,2.0,1,1470.4495,98.0,1.0,EAT                                    DON'T EAT,1469.6919,1461.6355,1451.3812
4,1,False,left,approach,neg,insect12_crop.jpg,1,1,1.0,3.0,1,1472.2916,98.0,1.0,EAT                                    DON'T EAT,1471.7134,1461.6355,1451.3812
5,1,False,left,approach,neg,insect15_crop.jpg,1,1,1.0,4.0,1,1474.2592,98.0,1.0,EAT                                    DON'T EAT,1473.7307,1461.6355,1451.3812
6,1,False,left,approach,neg,insect8_crop.jpg,1,1,1.0,5.0,1,1476.5476,98.0,1.0,EAT                                    DON'T EAT,1475.7471,1461.6355,1451.3812
7,1,False,left,approach,neg,insect1_crop.jpg,1,1,1.0,6.0,1,1478.4513,98.0,1.0,EAT                                    DON'T EAT,1477.7656,1461.6355,1451.3812
8,1,False,left,approach,neg,insect11_crop.jpg,1,1,1.0,7.0,1,1480.2905,98.0,1.0,EAT                                    DON'T EAT,1479.7833,1461.6355,1451.3812
9,1,False,left,approach,neg,insect6_crop.jpg,1,1,1.0,8.0,1,1482.4155,98.0,1.0,EAT                                    DON'T EAT,1481.8022,1461.6355,1451.3812
10,1,True,left,avoid,pos,meat28_crop.jpg,1,1,1.0,9.0,2,1484.719,98.0,1.0,EAT                                    DON'T EAT,1483.8206,1461.6355,1451.3812
11,0,False,left,avoid,pos,meat5_crop.jpg,1,2,1.0,10.0,2,1501.2762,98.0,2.0,EAT                                    DON'T EAT,1500.3175,1496.2975,1451.3812
12,0,False,left,avoid,pos,meat8_crop.jpg,1,2,1.0,11.0,2,1503.0725,98.0,2.0,EAT                                    DON'T EAT,1502.3358,1496.2975,1451.3812
13,0,False,left,avoid,pos,meat32_crop.jpg,1,2,1.0,12.0,2,1504.9242,98.0,2.0,EAT                                    DON'T EAT,1504.3542,1496.2975,1451.3812
14,0,True,left,approach,neg,insect38_crop.jpg,1,2,1.0,13.0,1,1507.1858,98.0,2.0,EAT                                    DON'T EAT,1506.3727,1496.2975,1451.3812
15,0,False,left,avoid,pos,meat20_crop.jpg,1,2,1.0,14.0,2,1509.0883,98.0,2.0,EAT                                    DON'T EAT,1508.391,1496.2975,1451.3812
16,0,False,left,avoid,pos,meat37_crop.jpg,1,2,1.0,15.0,2,1511.0835,98.0,2.0,EAT                                    DON'T EAT,1510.4093,1496.2975,1451.3812
17,0,True,left,approach,pos,cake31_crop.jpg,1,2,1.0,16.0,1,1513.3567,98.0,2.0,EAT                                    DON'T EAT,1512.4272,1496.2975,1451.3812
18,0,False,left,avoid,pos,meat12_crop.jpg,1,2,1.0,17.0,2,1515.2565,98.0,2.0,EAT                                    DON'T EAT,1514.4458,1496.2975,1451.3812
19,0,False,left,avoid,pos,meat33_crop.jpg,1,2,1.0,18.0,2,1517.3638,98.0,2.0,EAT                                    DON'T EAT,1516.4644,1496.2975,1451.3812
20,0,False,left,avoid,pos,meat31_crop.jpg,1,2,1.0,19.0,2,1519.1774,98.0,2.0,EAT                                    DON'T EAT,1518.4827,1496.2975,1451.3812
21,0,False,left,approach,neg,insect29_crop.jpg,1,3,1.0,20.0,1,1536.687,98.0,3.0,EAT                                    DON'T EAT,1535.7472,1531.7269,1451.3812
22,0,False,left,approach,neg,insect32_crop.jpg,1,3,1.0,21.0,1,1538.366,98.0,3.0,EAT                                    DON'T EAT,1537.7649,1531.7269,1451.3812
23,0,True,left,avoid,pos,meat9_crop.jpg,1,3,1.0,22.0,2,1540.8636,98.0,3.0,EAT                                    DON'T EAT,1539.7837,1531.7269,1451.3812
24,0,False,left,approach,neg,insect20_crop.jpg,1,3,1.0,23.0,1,1542.4774,98.0,3.0,EAT                                    DON'T EAT,1541.8021,1531.7269,1451.3812
25,0,False,left,approach,neg,insect35_crop.jpg,1,3,1.0,24.0,1,1544.6616,98.0,3.0,EAT                                    DON'T EAT,1543.8203,1531.7269,1451.3812
26,0,False,left,approach,neg,insect14_crop.jpg,1,3,1.0,25.0,1,1546.4589,98.0,3.0,EAT                                    DON'T EAT,1545.8386,1531.7269,1451.3812
27,0,False,left,approach,neg,insect5_crop.jpg,1,3,1.0,26.0,1,1548.3744,98.0,3.0,EAT                                    DON'T EAT,1547.8569,1531.7269,1451.3812
28,0,True,left,avoid,neg,fungus29_crop.jpg,1,3,1.0,27.0,2,1550.846,98.0,3.0,EAT                                    DON'T EAT,1549.875,1531.7269,1451.3812
29,0,False,left,approach,neg,insect16_crop.jpg,1,3,1.0,28.0,1,1552.5696,98.0,3.0,EAT                                    DON'T EAT,1551.8937,1531.7269,1451.3812
30,0,False,left,approach,neg,insect13_crop.jpg,1,3,1.0,29.0,1,1554.5557,98.0,3.0,EAT                                    DON'T EAT,1553.912,1531.7269,1451.3812
31,3,False,left,approach,neg,insect10_crop.jpg,1,4,1.0,30.0,1,1572.3263,98.0,4.0,EAT                                    DON'T EAT,1571.6935,1567.6735,1451.3812
32,3,False,left,approach,neg,insect23_crop.jpg,1,4,1.0,31.0,1,1574.2821,98.0,4.0,EAT                                    DON'T EAT,1573.7117,1567.6735,1451.3812
33,3,True,left,avoid,pos,meat16_crop.jpg,1,4,1.0,32.0,2,1576.3201,98.0,4.0,EAT                                    DON'T EAT,1575.7301,1567.6735,1451.3812
34,3,False,left,approach,neg,insect30_crop.jpg,1,4,1.0,33.0,1,1578.2866,98.0,4.0,EAT                                    DON'T EAT,1577.7484,1567.6735,1451.3812
35,3,False,left,approach,neg,insect39_crop.jpg,1,4,1.0,34.0,1,1580.4204,98.0,4.0,EAT                                    DON'T EAT,1579.7667,1567.6735,1451.3812
36,3,False,left,approach,neg,insect37_crop.jpg,1,4,1.0,35.0,1,1582.5205,98.0,4.0,EAT                                    DON'T EAT,1581.785,1567.6735,1451.3812
37,3,False,left,approach,neg,insect7_crop.jpg,1,4,1.0,36.0,1,1584.4252,98.0,4.0,EAT                                    DON'T EAT,1583.8032,1567.6735,1451.3812
38,3,True,left,avoid,neg,fungus14_crop.jpg,1,4,1.0,37.0,2,1586.9165,98.0,4.0,EAT                                    DON'T EAT,1585.8219,1567.6735,1451.3812
39,3,False,left,approach,neg,insect28_crop.jpg,1,4,1.0,38.0,1,1588.6097,98.0,4.0,EAT                                    DON'T EAT,1587.8402,1567.6735,1451.3812
40,3,False,left,approach,neg,insect3_crop.jpg,1,4,1.0,39.0,1,1590.4058,98.0,4.0,EAT                                    DON'T EAT,1589.8586,1567.6735,1451.3812
41,1,False,left,avoid,neg,fungus21_crop.jpg,1,5,1.0,40.0,2,1608.3616,98.0,5.0,EAT                                    DON'T EAT,1607.3397,1603.3197,1451.3812
42,1,False,left,avoid,neg,fungus35_crop.jpg,1,5,1.0,41.0,2,1610.156,98.0,5.0,EAT                                    DON'T EAT,1609.3575,1603.3197,1451.3812
43,1,False,left,avoid,neg,fungus19_crop.jpg,1,5,1.0,42.0,2,1612.0217,98.0,5.0,EAT                                    DON'T EAT,1611.3759,1603.3197,1451.3812
44,1,False,left,avoid,neg,fungus37_crop.jpg,1,5,1.0,43.0,2,1614.2336,98.0,5.0,EAT                                    DON'T EAT,1613.3943,1603.3197,1451.3812
45,1,False,left,avoid,neg,fungus16_crop.jpg,1,5,1.0,44.0,2,1616.1824,98.0,5.0,EAT                                    DON'T EAT,1615.4131,1603.3197,1451.3812
46,1,False,left,avoid,neg,fungus26_crop.jpg,1,5,1.0,45.0,2,1618.1595,98.0,5.0,EAT                                    DON'T EAT,1617.4314,1603.3197,1451.3812
47,1,False,left,avoid,neg,fungus33_crop.jpg,1,5,1.0,46.0,2,1620.0745,98.0,5.0,EAT                                    DON'T EAT,1619.4497,1603.3197,1451.3812
48,1,True,left,approach,pos,cake39_crop.jpg,1,5,1.0,47.0,1,1622.2784,98.0,5.0,EAT                                    DON'T EAT,1621.468,1603.3197,1451.3812
49,1,False,left,avoid,neg,fungus15_crop.jpg,1,5,1.0,48.0,2,1624.2559,98.0,5.0,EAT                                    DON'T EAT,1623.4863,1603.3197,1451.3812
50,1,True,left,approach,neg,insect4_crop.jpg,1,5,1.0,49.0,1,1626.1454,98.0,5.0,EAT                                    DON'T EAT,1625.5049,1603.3197,1451.3812
51,0,False,right,avoid,pos,meat39_crop.jpg,1,6,1.0,50.0,2,1644.7388,98.0,6.0,EAT                                    DON'T EAT,1643.5864,1639.5659,1451.3812
52,0,False,right,avoid,pos,meat7_crop.jpg,1,6,1.0,51.0,2,1646.3029,98.0,6.0,EAT                                    DON'T EAT,1645.6049,1639.5659,1451.3812
53,0,False,right,avoid,pos,meat38_crop.jpg,1,6,1.0,52.0,2,1648.2247,98.0,6.0,EAT                                    DON'T EAT,1647.6233,1639.5659,1451.3812
54,0,False,right,avoid,pos,meat11_crop.jpg,1,6,1.0,53.0,2,1650.2012,98.0,6.0,EAT                                    DON'T EAT,1649.6415,1639.5659,1451.3812
55,0,True,right,approach,neg,insect28_crop.jpg,1,6,1.0,54.0,1,1652.3052,98.0,6.0,EAT                                    DON'T EAT,1651.6598,1639.5659,1451.3812
56,0,True,right,approach,pos,cake31_crop.jpg,1,6,1.0,55.0,1,1654.5634,98.0,6.0,EAT                                    DON'T EAT,1653.6781,1639.5659,1451.3812
57,0,False,right,avoid,pos,meat28_crop.jpg,1,6,1.0,56.0,2,1656.4783,98.0,6.0,EAT                                    DON'T EAT,1655.6965,1639.5659,1451.3812
58,0,False,right,avoid,pos,meat37_crop.jpg,1,6,1.0,57.0,2,1658.3501,98.0,6.0,EAT                                    DON'T EAT,1657.715,1639.5659,1451.3812
59,0,False,right,avoid,pos,meat29_crop.jpg,1,6,1.0,58.0,2,1660.4165,98.0,6.0,EAT                                    DON'T EAT,1659.733,1639.5659,1451.3812
60,0,False,right,avoid,pos,meat13_crop.jpg,1,6,1.0,59.0,2,1662.3091,98.0,6.0,EAT                                    DON'T EAT,1661.7515,1639.5659,1451.3812
61,2,False,left,approach,neg,insect25_crop.jpg,1,7,1.0,60.0,1,1682.4744,98.0,7.0,EAT                                    DON'T EAT,1681.6848,1677.6646,1451.3812
62,2,False,left,approach,neg,insect33_crop.jpg,1,7,1.0,61.0,1,1684.3547,98.0,7.0,EAT                                    DON'T EAT,1683.7028,1677.6646,1451.3812
63,2,False,left,approach,neg,insect24_crop.jpg,1,7,1.0,62.0,1,1686.3011,98.0,7.0,EAT                                    DON'T EAT,1685.7214,1677.6646,1451.3812
64,2,False,left,approach,neg,insect22_crop.jpg,1,7,1.0,63.0,1,1688.3615,98.0,7.0,EAT                                    DON'T EAT,1687.7399,1677.6646,1451.3812
65,2,True,left,avoid,pos,meat30_crop.jpg,1,7,1.0,64.0,2,1690.3619,98.0,7.0,EAT                                    DON'T EAT,1689.758,1677.6646,1451.3812
66,2,True,left,avoid,neg,fungus12_crop.jpg,1,7,1.0,65.0,2,1693.0612,98.0,7.0,EAT                                    DON'T EAT,1691.7761,1677.6646,1451.3812
67,2,False,left,approach,neg,insect40_crop.jpg,1,7,1.0,66.0,1,1694.5518,98.0,7.0,EAT                                    DON'T EAT,1693.7947,1677.6646,1451.3812
68,2,False,left,approach,neg,insect18_crop.jpg,1,7,1.0,67.0,1,1696.5183,98.0,7.0,EAT                                    DON'T EAT,1695.8132,1677.6646,1451.3812
69,2,False,left,approach,neg,insect26_crop.jpg,1,7,1.0,68.0,1,1698.4136,98.0,7.0,EAT                                    DON'T EAT,1697.8314,1677.6646,1451.3812
70,2,False,left,approach,neg,insect36_crop.jpg,1,7,1.0,69.0,1,1700.6503,98.0,7.0,EAT                                    DON'T EAT,1699.8497,1677.6646,1451.3812
71,2,True,right,avoid,neg,fungus14_crop.jpg,1,8,1.0,70.0,2,1718.4894,98.0,8.0,EAT                                    DON'T EAT,1717.6981,1713.678,1451.3812
72,2,False,right,approach,neg,insect24_crop.jpg,1,8,1.0,71.0,1,1720.3271,98.0,8.0,EAT                                    DON'T EAT,1719.7162,1713.678,1451.3812
73,2,False,right,approach,neg,insect8_crop.jpg,1,8,1.0,72.0,1,1722.2992,98.0,8.0,EAT                                    DON'T EAT,1721.7341,1713.678,1451.3812
74,2,True,right,avoid,pos,meat10_crop.jpg,1,8,1.0,73.0,2,1724.4597,98.0,8.0,EAT                                    DON'T EAT,1723.753,1713.678,1451.3812
75,2,False,right,approach,neg,insect6_crop.jpg,1,8,1.0,74.0,1,1726.2781,98.0,8.0,EAT                                    DON'T EAT,1725.7714,1713.678,1451.3812
76,2,False,right,approach,neg,insect3_crop.jpg,1,8,1.0,75.0,1,1728.3488,98.0,8.0,EAT                                    DON'T EAT,1727.7896,1713.678,1451.3812
77,2,False,right,approach,neg,insect32_crop.jpg,1,8,1.0,76.0,1,1730.3497,98.0,8.0,EAT                                    DON'T EAT,1729.808,1713.678,1451.3812
78,2,False,right,approach,neg,insect37_crop.jpg,1,8,1.0,77.0,1,1732.4056,98.0,8.0,EAT                                    DON'T EAT,1731.8263,1713.678,1451.3812
79,2,False,right,approach,neg,insect11_crop.jpg,1,8,1.0,78.0,1,1734.4119,98.0,8.0,EAT                                    DON'T EAT,1733.8448,1713.678,1451.3812
80,2,False,right,approach,neg,insect35_crop.jpg,1,8,1.0,79.0,1,1736.3778,98.0,8.0,EAT                                    DON'T EAT,1735.8632,1713.678,1451.3812
81,1,False,right,approach,neg,insect1_crop.jpg,2,9,1.0,80.0,1,1885.0513,98.0,9.0,EAT                                    DON'T EAT,1883.9027,1879.8826,1869.8481
82,1,False,right,approach,neg,insect27_crop.jpg,2,9,1.0,81.0,1,1886.6066,98.0,9.0,EAT                                    DON'T EAT,1885.9209,1879.8826,1869.8481
83,1,False,right,approach,neg,insect23_crop.jpg,2,9,1.0,82.0,1,1888.4015,98.0,9.0,EAT                                    DON'T EAT,1887.9392,1879.8826,1869.8481
84,1,False,right,approach,neg,insect29_crop.jpg,2,9,1.0,83.0,1,1890.4004,98.0,9.0,EAT                                    DON'T EAT,1889.9576,1879.8826,1869.8481
85,1,False,right,approach,neg,insect39_crop.jpg,2,9,1.0,84.0,1,1892.4293,98.0,9.0,EAT                                    DON'T EAT,1891.9755,1879.8826,1869.8481
86,1,True,right,avoid,pos,meat40_crop.jpg,2,9,1.0,85.0,2,1894.8182,98.0,9.0,EAT                                    DON'T EAT,1893.9944,1879.8826,1869.8481
87,1,False,right,approach,neg,insect7_crop.jpg,2,9,1.0,86.0,1,1896.6793,98.0,9.0,EAT                                    DON'T EAT,1896.0127,1879.8826,1869.8481
88,1,True,right,avoid,neg,fungus40_crop.jpg,2,9,1.0,87.0,2,1898.9747,98.0,9.0,EAT                                    DON'T EAT,1898.0311,1879.8826,1869.8481
89,1,False,right,approach,neg,insect16_crop.jpg,2,9,1.0,88.0,1,1900.6907,98.0,9.0,EAT                                    DON'T EAT,1900.0493,1879.8826,1869.8481
90,1,False,right,approach,neg,insect40_crop.jpg,2,9,1.0,89.0,1,1902.667,98.0,9.0,EAT                                    DON'T EAT,1902.0676,1879.8826,1869.8481
91,3,False,right,avoid,pos,meat16_crop.jpg,2,10,1.0,90.0,2,1922.58,98.0,10.0,EAT                                    DON'T EAT,1921.6841,1917.6641,1869.8481
92,3,True,right,approach,pos,cake11_crop.jpg,2,10,1.0,91.0,1,1924.6444,98.0,10.0,EAT                                    DON'T EAT,1923.7024,1917.6641,1869.8481
93,3,False,right,avoid,pos,meat24_crop.jpg,2,10,1.0,92.0,2,1926.3639,98.0,10.0,EAT                                    DON'T EAT,1925.7207,1917.6641,1869.8481
94,3,True,right,approach,neg,insect10_crop.jpg,2,10,1.0,93.0,1,1928.4572,98.0,10.0,EAT                                    DON'T EAT,1927.739,1917.6641,1869.8481
95,3,False,right,avoid,pos,meat4_crop.jpg,2,10,1.0,94.0,2,1930.3602,98.0,10.0,EAT                                    DON'T EAT,1929.7573,1917.6641,1869.8481
96,3,False,right,avoid,pos,meat23_crop.jpg,2,10,1.0,95.0,2,1932.3553,98.0,10.0,EAT                                    DON'T EAT,1931.7758,1917.6641,1869.8481
97,3,False,right,avoid,pos,meat1_crop.jpg,2,10,1.0,96.0,2,1934.5232,98.0,10.0,EAT                                    DON'T EAT,1933.7942,1917.6641,1869.8481
98,3,False,right,avoid,pos,meat6_crop.jpg,2,10,1.0,97.0,2,1936.5062,98.0,10.0,EAT                                    DON'T EAT,1935.8124,1917.6641,1869.8481
99,3,False,right,avoid,pos,meat27_crop.jpg,2,10,1.0,98.0,2,1938.5288,98.0,10.0,EAT                                    DON'T EAT,1937.8307,1917.6641,1869.8481
100,3,False,right,avoid,pos,meat14_crop.jpg,2,10,1.0,99.0,2,1940.5537,98.0,10.0,EAT                                    DON'T EAT,1939.849,1917.6641,1869.8481
101,2,False,right,avoid,pos,meat20_crop.jpg,2,11,1.0,100.0,2,1957.5986,98.0,11.0,EAT                                    DON'T EAT,1956.8799,1952.8599,1869.8481
102,2,False,right,avoid,pos,meat31_crop.jpg,2,11,1.0,101.0,2,1959.4568,98.0,11.0,EAT                                    DON'T EAT,1958.8982,1952.8599,1869.8481
103,2,False,right,avoid,pos,meat21_crop.jpg,2,11,1.0,102.0,2,1961.4547,98.0,11.0,EAT                                    DON'T EAT,1960.9165,1952.8599,1869.8481
104,2,False,right,avoid,pos,meat19_crop.jpg,2,11,1.0,103.0,2,1963.4305,98.0,11.0,EAT                                    DON'T EAT,1962.9349,1952.8599,1869.8481
105,2,False,right,avoid,pos,meat25_crop.jpg,2,11,1.0,104.0,2,1965.5425,98.0,11.0,EAT                                    DON'T EAT,1964.953,1952.8599,1869.8481
106,2,False,right,avoid,pos,meat3_crop.jpg,2,11,1.0,105.0,2,1967.49,98.0,11.0,EAT                                    DON'T EAT,1966.9716,1952.8599,1869.8481
107,2,True,right,approach,neg,insect14_crop.jpg,2,11,1.0,106.0,1,1969.6654,98.0,11.0,EAT                                    DON'T EAT,1968.9899,1952.8599,1869.8481
108,2,True,right,approach,pos,cake9_crop.jpg,2,11,1.0,107.0,1,1971.8762,98.0,11.0,EAT                                    DON'T EAT,1971.0083,1952.8599,1869.8481
109,2,False,right,avoid,pos,meat8_crop.jpg,2,11,1.0,108.0,2,1973.7318,98.0,11.0,EAT                                    DON'T EAT,1973.0266,1952.8599,1869.8481
110,2,False,right,avoid,pos,meat35_crop.jpg,2,11,1.0,109.0,2,1975.6255,98.0,11.0,EAT                                    DON'T EAT,1975.0449,1952.8599,1869.8481
111,0,False,left,approach,pos,cake34_crop.jpg,2,12,1.0,110.0,2,1994.1368,98.0,12.0,EAT                                    DON'T EAT,1993.21,1989.19,1869.8481
112,0,False,left,approach,pos,cake14_crop.jpg,2,12,1.0,111.0,1,1996.0625,98.0,12.0,EAT                                    DON'T EAT,1995.2284,1989.19,1869.8481
113,0,True,left,avoid,neg,fungus7_crop.jpg,2,12,1.0,112.0,2,1998.0052,98.0,12.0,EAT                                    DON'T EAT,1997.2467,1989.19,1869.8481
114,0,False,left,approach,pos,cake25_crop.jpg,2,12,1.0,113.0,1,1999.8905,98.0,12.0,EAT                                    DON'T EAT,1999.2651,1989.19,1869.8481
115,0,False,left,approach,pos,cake18_crop.jpg,2,12,1.0,114.0,1,2002.2733,98.0,12.0,EAT                                    DON'T EAT,2001.2834,1989.19,1869.8481
116,0,False,left,approach,pos,cake26_crop.jpg,2,12,1.0,115.0,1,2003.9878,98.0,12.0,EAT                                    DON'T EAT,2003.3018,1989.19,1869.8481
117,0,True,left,avoid,pos,meat13_crop.jpg,2,12,1.0,116.0,2,2006.1338,98.0,12.0,EAT                                    DON'T EAT,2005.3202,1989.19,1869.8481
118,0,False,left,approach,pos,cake23_crop.jpg,2,12,1.0,117.0,1,2008.2871,98.0,12.0,EAT                                    DON'T EAT,2007.3385,1989.19,1869.8481
119,0,False,left,approach,pos,cake4_crop.jpg,2,12,1.0,118.0,1,2010.1152,98.0,12.0,EAT                                    DON'T EAT,2009.3567,1989.19,1869.8481
120,0,False,left,approach,pos,cake17_crop.jpg,2,12,1.0,119.0,1,2012.1149,98.0,12.0,EAT                                    DON'T EAT,2011.3749,1989.19,1869.8481
121,0,True,right,avoid,pos,meat12_crop.jpg,2,13,1.0,120.0,2,2031.9838,98.0,13.0,EAT                                    DON'T EAT,2031.1079,2027.0881,1869.8481
122,0,False,right,approach,pos,cake3_crop.jpg,2,13,1.0,121.0,1,2033.9586,98.0,13.0,EAT                                    DON'T EAT,2033.1265,2027.0881,1869.8481
123,0,True,right,avoid,neg,fungus21_crop.jpg,2,13,1.0,122.0,2,2035.8955,98.0,13.0,EAT                                    DON'T EAT,2035.1449,2027.0881,1869.8481
124,0,False,right,approach,pos,cake5_crop.jpg,2,13,1.0,123.0,1,2037.8477,98.0,13.0,EAT                                    DON'T EAT,2037.163,2027.0881,1869.8481
125,0,False,right,approach,pos,cake37_crop.jpg,2,13,1.0,124.0,1,2039.8827,98.0,13.0,EAT                                    DON'T EAT,2039.1815,2027.0881,1869.8481
126,0,False,right,approach,pos,cake35_crop.jpg,2,13,1.0,125.0,1,2041.7183,98.0,13.0,EAT                                    DON'T EAT,2041.2,2027.0881,1869.8481
127,0,False,right,approach,pos,cake14_crop.jpg,2,13,1.0,126.0,1,2043.7242,98.0,13.0,EAT                                    DON'T EAT,2043.2181,2027.0881,1869.8481
128,0,False,right,approach,pos,cake34_crop.jpg,2,13,1.0,127.0,1,2045.7747,98.0,13.0,EAT                                    DON'T EAT,2045.2366,2027.0881,1869.8481
129,0,False,right,approach,pos,cake23_crop.jpg,2,13,1.0,128.0,1,2047.7705,98.0,13.0,EAT                                    DON'T EAT,2047.255,2027.0881,1869.8481
130,0,False,right,approach,pos,cake1_crop.jpg,2,13,1.0,129.0,1,2049.8547,98.0,13.0,EAT                                    DON'T EAT,2049.2732,2027.0881,1869.8481
131,0,False,right,avoid,neg,fungus30_crop.jpg,2,14,1.0,130.0,2,2069.3638,98.0,14.0,EAT                                    DON'T EAT,2068.4058,2064.3857,1869.8481
132,0,True,right,approach,pos,cake40_crop.jpg,2,14,1.0,131.0,1,2071.2266,98.0,14.0,EAT                                    DON'T EAT,2070.424,2064.3857,1869.8481
133,0,False,right,avoid,neg,fungus8_crop.jpg,2,14,1.0,132.0,2,2073.2417,98.0,14.0,EAT                                    DON'T EAT,2072.4426,2064.3857,1869.8481
134,0,False,right,avoid,neg,fungus31_crop.jpg,2,14,1.0,133.0,2,2075.1267,98.0,14.0,EAT                                    DON'T EAT,2074.461,2064.3857,1869.8481
135,0,False,right,avoid,neg,fungus18_crop.jpg,2,14,1.0,134.0,2,2077.3438,98.0,14.0,EAT                                    DON'T EAT,2076.4792,2064.3857,1869.8481
136,0,False,right,avoid,neg,fungus6_crop.jpg,2,14,1.0,135.0,2,2079.3186,98.0,14.0,EAT                                    DON'T EAT,2078.4976,2064.3857,1869.8481
137,0,False,right,avoid,neg,fungus37_crop.jpg,2,14,1.0,136.0,2,2081.064,98.0,14.0,EAT                                    DON'T EAT,2080.5159,2064.3857,1869.8481
138,0,False,right,avoid,neg,fungus24_crop.jpg,2,14,1.0,137.0,2,2083.2405,98.0,14.0,EAT                                    DON'T EAT,2082.5342,2064.3857,1869.8481
139,0,False,right,avoid,neg,fungus28_crop.jpg,2,14,1.0,138.0,2,2085.1067,98.0,14.0,EAT                                    DON'T EAT,2084.552,2064.3857,1869.8481
140,0,True,right,approach,neg,insect17_crop.jpg,2,14,1.0,139.0,1,2087.2783,98.0,14.0,EAT                                    DON'T EAT,2086.5708,2064.3857,1869.8481
141,2,False,left,avoid,pos,meat35_crop.jpg,2,15,1.0,140.0,2,2103.7493,98.0,15.0,EAT                                    DON'T EAT,2102.7175,2098.6973,1869.8481
142,2,False,left,avoid,pos,meat38_crop.jpg,2,15,1.0,141.0,2,2105.4417,98.0,15.0,EAT                                    DON'T EAT,2104.7358,2098.6973,1869.8481
143,2,False,left,avoid,pos,meat15_crop.jpg,2,15,1.0,142.0,2,2107.3662,98.0,15.0,EAT                                    DON'T EAT,2106.7544,2098.6973,1869.8481
144,2,True,left,approach,neg,insect27_crop.jpg,2,15,1.0,143.0,1,2109.5088,98.0,15.0,EAT                                    DON'T EAT,2108.7727,2098.6973,1869.8481
145,2,False,left,avoid,pos,meat7_crop.jpg,2,15,1.0,144.0,2,2111.508,98.0,15.0,EAT                                    DON'T EAT,2110.791,2098.6973,1869.8481
146,2,False,left,avoid,pos,meat34_crop.jpg,2,15,1.0,145.0,2,2113.4292,98.0,15.0,EAT                                    DON'T EAT,2112.8096,2098.6973,1869.8481
147,2,True,left,approach,pos,cake19_crop.jpg,2,15,1.0,146.0,1,2115.6316,98.0,15.0,EAT                                    DON'T EAT,2114.8276,2098.6973,1869.8481
148,2,False,left,avoid,pos,meat26_crop.jpg,2,15,1.0,147.0,2,2117.4343,98.0,15.0,EAT                                    DON'T EAT,2116.846,2098.6973,1869.8481
149,2,False,left,avoid,pos,meat22_crop.jpg,2,15,1.0,148.0,2,2119.4993,98.0,15.0,EAT                                    DON'T EAT,2118.8645,2098.6973,1869.8481
150,2,False,left,avoid,pos,meat24_crop.jpg,2,15,1.0,149.0,2,2121.5261,98.0,15.0,EAT                                    DON'T EAT,2120.8828,2098.6973,1869.8481
151,2,False,right,approach,pos,cake2_crop.jpg,2,16,1.0,150.0,1,2138.0745,98.0,16.0,EAT                                    DON'T EAT,2137.263,2133.2427,1869.8481
152,2,True,right,avoid,pos,meat26_crop.jpg,2,16,1.0,151.0,2,2139.8503,98.0,16.0,EAT                                    DON'T EAT,2139.2815,2133.2427,1869.8481
153,2,False,right,approach,pos,cake24_crop.jpg,2,16,1.0,152.0,1,2142.1565,98.0,16.0,EAT                                    DON'T EAT,2141.2996,2133.2427,1869.8481
154,2,False,right,approach,pos,cake27_crop.jpg,2,16,1.0,153.0,1,2143.9197,98.0,16.0,EAT                                    DON'T EAT,2143.3179,2133.2427,1869.8481
155,2,False,right,approach,pos,cake7_crop.jpg,2,16,1.0,154.0,1,2145.8223,98.0,16.0,EAT                                    DON'T EAT,2145.3357,2133.2427,1869.8481
156,2,False,right,approach,pos,cake29_crop.jpg,2,16,1.0,155.0,1,2147.986,98.0,16.0,EAT                                    DON'T EAT,2147.3547,2133.2427,1869.8481
157,2,False,right,approach,pos,cake6_crop.jpg,2,16,1.0,156.0,1,2149.9302,98.0,16.0,EAT                                    DON'T EAT,2149.373,2133.2427,1869.8481
158,2,True,right,avoid,neg,fungus39_crop.jpg,2,16,1.0,157.0,2,2152.118,98.0,16.0,EAT                                    DON'T EAT,2151.3914,2133.2427,1869.8481
159,2,False,right,approach,pos,cake21_crop.jpg,2,16,1.0,158.0,1,2154.0725,98.0,16.0,EAT                                    DON'T EAT,2153.4097,2133.2427,1869.8481
160,2,False,right,approach,pos,cake38_crop.jpg,2,16,1.0,159.0,1,2156.0183,98.0,16.0,EAT                                    DON'T EAT,2155.428,2133.2427,1869.8481
161,1,True,left,approach,neg,insect34_crop.jpg,3,17,1.0,160.0,1,2267.178,98.0,17.0,EAT                                    DON'T EAT,2266.5037,2262.4834,2249.349
162,1,False,left,avoid,pos,meat25_crop.jpg,3,17,1.0,161.0,2,2269.5237,98.0,17.0,EAT                                    DON'T EAT,2268.522,2262.4834,2249.349
163,1,False,left,avoid,pos,meat17_crop.jpg,3,17,1.0,162.0,2,2271.2773,98.0,17.0,EAT                                    DON'T EAT,2270.5403,2262.4834,2249.349
164,1,False,left,avoid,pos,meat39_crop.jpg,3,17,1.0,163.0,2,2273.2305,98.0,17.0,EAT                                    DON'T EAT,2272.5586,2262.4834,2249.349
165,1,False,left,avoid,pos,meat2_crop.jpg,3,17,1.0,164.0,2,2275.2407,98.0,17.0,EAT                                    DON'T EAT,2274.5771,2262.4834,2249.349
166,1,True,left,approach,pos,cake16_crop.jpg,3,17,1.0,165.0,1,2277.2603,98.0,17.0,EAT                                    DON'T EAT,2276.595,2262.4834,2249.349
167,1,False,left,avoid,pos,meat6_crop.jpg,3,17,1.0,166.0,2,2279.3499,98.0,17.0,EAT                                    DON'T EAT,2278.6138,2262.4834,2249.349
168,1,False,left,avoid,pos,meat27_crop.jpg,3,17,1.0,167.0,2,2281.414,98.0,17.0,EAT                                    DON'T EAT,2280.6316,2262.4834,2249.349
169,1,False,left,avoid,pos,meat29_crop.jpg,3,17,1.0,168.0,2,2283.2087,98.0,17.0,EAT                                    DON'T EAT,2282.6504,2262.4834,2249.349
170,1,False,left,avoid,pos,meat10_crop.jpg,3,17,1.0,169.0,2,2285.4688,98.0,17.0,EAT                                    DON'T EAT,2284.6687,2262.4834,2249.349
171,1,False,right,avoid,neg,fungus34_crop.jpg,3,18,1.0,170.0,2,2303.4,98.0,18.0,EAT                                    DON'T EAT,2302.45,2298.4302,2249.349
172,1,False,right,avoid,neg,fungus16_crop.jpg,3,18,1.0,171.0,2,2305.2605,98.0,18.0,EAT                                    DON'T EAT,2304.4685,2298.4302,2249.349
173,1,False,right,avoid,neg,fungus11_crop.jpg,3,18,1.0,172.0,2,2307.109,98.0,18.0,EAT                                    DON'T EAT,2306.4868,2298.4302,2249.349
174,1,False,right,avoid,neg,fungus7_crop.jpg,3,18,1.0,173.0,2,2308.9685,98.0,18.0,EAT                                    DON'T EAT,2308.505,2298.4302,2249.349
175,1,False,right,avoid,neg,fungus29_crop.jpg,3,18,1.0,174.0,2,2310.956,98.0,18.0,EAT                                    DON'T EAT,2310.5234,2298.4302,2249.349
176,1,False,right,avoid,neg,fungus20_crop.jpg,3,18,1.0,175.0,2,2313.0364,98.0,18.0,EAT                                    DON'T EAT,2312.542,2298.4302,2249.349
177,1,True,right,approach,neg,insect5_crop.jpg,3,18,1.0,176.0,1,2315.2878,98.0,18.0,EAT                                    DON'T EAT,2314.5603,2298.4302,2249.349
178,1,False,right,avoid,neg,fungus27_crop.jpg,3,18,1.0,177.0,2,2317.1904,98.0,18.0,EAT                                    DON'T EAT,2316.5784,2298.4302,2249.349
179,1,False,right,avoid,neg,fungus23_crop.jpg,3,18,1.0,178.0,2,2319.41,98.0,18.0,EAT                                    DON'T EAT,2318.597,2298.4302,2249.349
180,1,True,right,approach,pos,cake33_crop.jpg,3,18,1.0,179.0,1,2321.3306,98.0,18.0,EAT                                    DON'T EAT,2320.615,2298.4302,2249.349
181,1,False,right,approach,pos,cake36_crop.jpg,3,19,1.0,180.0,1,2339.2517,98.0,19.0,EAT                                    DON'T EAT,2338.3464,2334.3262,2249.349
182,1,False,right,approach,pos,cake13_crop.jpg,3,19,1.0,181.0,1,2340.9463,98.0,19.0,EAT                                    DON'T EAT,2340.365,2334.3262,2249.349
183,1,True,right,avoid,pos,meat15_crop.jpg,3,19,1.0,182.0,1,2342.8806,98.0,19.0,EAT                                    DON'T EAT,2342.3833,2334.3262,2249.349
184,1,False,right,approach,pos,cake25_crop.jpg,3,19,1.0,183.0,1,2345.155,98.0,19.0,EAT                                    DON'T EAT,2344.4016,2334.3262,2249.349
185,1,False,right,approach,pos,cake18_crop.jpg,3,19,1.0,184.0,1,2347.2312,98.0,19.0,EAT                                    DON'T EAT,2346.4197,2334.3262,2249.349
186,1,True,right,avoid,neg,fungus35_crop.jpg,3,19,1.0,185.0,2,2349.1274,98.0,19.0,EAT                                    DON'T EAT,2348.4382,2334.3262,2249.349
187,1,False,right,approach,pos,cake16_crop.jpg,3,19,1.0,186.0,1,2351.0354,98.0,19.0,EAT                                    DON'T EAT,2350.4565,2334.3262,2249.349
188,1,False,right,approach,pos,cake20_crop.jpg,3,19,1.0,187.0,1,2353.4648,98.0,19.0,EAT                                    DON'T EAT,2352.4749,2334.3262,2249.349
189,1,False,right,approach,pos,cake12_crop.jpg,3,19,1.0,188.0,1,2355.1062,98.0,19.0,EAT                                    DON'T EAT,2354.4934,2334.3262,2249.349
190,1,False,right,approach,pos,cake15_crop.jpg,3,19,1.0,189.0,1,2357.081,98.0,19.0,EAT                                    DON'T EAT,2356.5117,2334.3262,2249.349
191,2,True,right,approach,neg,insect13_crop.jpg,3,20,1.0,190.0,1,2374.8696,98.0,20.0,EAT                                    DON'T EAT,2374.1096,2370.0896,2249.349
192,2,False,right,avoid,neg,fungus19_crop.jpg,3,20,1.0,191.0,2,2376.7495,98.0,20.0,EAT                                    DON'T EAT,2376.1277,2370.0896,2249.349
193,2,False,right,avoid,neg,fungus36_crop.jpg,3,20,1.0,192.0,2,2378.7153,98.0,20.0,EAT                                    DON'T EAT,2378.1462,2370.0896,2249.349
194,2,False,right,avoid,neg,fungus25_crop.jpg,3,20,1.0,193.0,2,2380.756,98.0,20.0,EAT                                    DON'T EAT,2380.1643,2370.0896,2249.349
195,2,False,right,avoid,neg,fungus4_crop.jpg,3,20,1.0,194.0,2,2382.7107,98.0,20.0,EAT                                    DON'T EAT,2382.1829,2370.0896,2249.349
196,2,True,right,approach,pos,cake10_crop.jpg,3,20,1.0,195.0,1,2384.7693,98.0,20.0,EAT                                    DON'T EAT,2384.2012,2370.0896,2249.349
197,2,False,right,avoid,neg,fungus32_crop.jpg,3,20,1.0,196.0,2,2386.894,98.0,20.0,EAT                                    DON'T EAT,2386.2197,2370.0896,2249.349
198,2,False,right,avoid,neg,fungus15_crop.jpg,3,20,1.0,197.0,2,2388.829,98.0,20.0,EAT                                    DON'T EAT,2388.238,2370.0896,2249.349
199,2,False,right,avoid,neg,fungus10_crop.jpg,3,20,1.0,198.0,2,2390.7502,98.0,20.0,EAT                                    DON'T EAT,2390.2563,2370.0896,2249.349
200,2,False,right,avoid,neg,fungus38_crop.jpg,3,20,1.0,199.0,2,2392.9082,98.0,20.0,EAT                                    DON'T EAT,2392.275,2370.0896,2249.349
201,2,False,left,avoid,neg,fungus23_crop.jpg,3,21,1.0,200.0,2,2411.6282,98.0,21.0,EAT                                    DON'T EAT,2410.89,2406.87,2249.349
202,2,False,left,avoid,neg,fungus11_crop.jpg,3,21,1.0,201.0,2,2413.4775,98.0,21.0,EAT                                    DON'T EAT,2412.9084,2406.87,2249.349
203,2,False,left,avoid,neg,fungus1_crop.jpg,3,21,1.0,202.0,2,2415.6125,98.0,21.0,EAT                                    DON'T EAT,2414.9268,2406.87,2249.349
204,2,True,left,approach,neg,insect19_crop.jpg,3,21,1.0,203.0,1,2417.556,98.0,21.0,EAT                                    DON'T EAT,2416.945,2406.87,2249.349
205,2,False,left,avoid,neg,fungus36_crop.jpg,3,21,1.0,204.0,2,2419.533,98.0,21.0,EAT                                    DON'T EAT,2418.9636,2406.87,2249.349
206,2,False,left,avoid,neg,fungus18_crop.jpg,3,21,1.0,205.0,2,2421.658,98.0,21.0,EAT                                    DON'T EAT,2420.9814,2406.87,2249.349
207,2,False,left,avoid,neg,fungus25_crop.jpg,3,21,1.0,206.0,2,2423.5361,98.0,21.0,EAT                                    DON'T EAT,2423.0002,2406.87,2249.349
208,2,True,left,approach,pos,cake13_crop.jpg,3,21,1.0,207.0,1,2425.5674,98.0,21.0,EAT                                    DON'T EAT,2425.0186,2406.87,2249.349
209,2,False,left,avoid,neg,fungus13_crop.jpg,3,21,1.0,208.0,2,2427.6482,98.0,21.0,EAT                                    DON'T EAT,2427.0369,2406.87,2249.349
210,2,False,left,avoid,neg,fungus39_crop.jpg,3,21,1.0,209.0,2,2429.6348,98.0,21.0,EAT                                    DON'T EAT,2429.055,2406.87,2249.349
211,2,False,left,approach,pos,cake3_crop.jpg,3,22,1.0,210.0,1,2450.0212,98.0,22.0,EAT                                    DON'T EAT,2448.9883,2444.968,2249.349
212,2,False,left,approach,pos,cake1_crop.jpg,3,22,1.0,211.0,1,2451.5967,98.0,22.0,EAT                                    DON'T EAT,2451.0066,2444.968,2249.349
213,2,False,left,approach,pos,cake38_crop.jpg,3,22,1.0,212.0,1,2453.5298,98.0,22.0,EAT                                    DON'T EAT,2453.0251,2444.968,2249.349
214,2,True,left,avoid,neg,fungus3_crop.jpg,3,22,1.0,213.0,2,2455.5815,98.0,22.0,EAT                                    DON'T EAT,2455.0435,2444.968,2249.349
215,2,True,left,avoid,pos,meat40_crop.jpg,3,22,1.0,214.0,2,2457.7175,98.0,22.0,EAT                                    DON'T EAT,2457.0618,2444.968,2249.349
216,2,False,left,approach,pos,cake11_crop.jpg,3,22,1.0,215.0,1,2459.6938,98.0,22.0,EAT                                    DON'T EAT,2459.0803,2444.968,2249.349
217,2,False,left,approach,pos,cake35_crop.jpg,3,22,1.0,216.0,2,2461.5652,98.0,22.0,EAT                                    DON'T EAT,2461.0984,2444.968,2249.349
218,2,False,left,approach,pos,cake20_crop.jpg,3,22,1.0,217.0,1,2463.7705,98.0,22.0,EAT                                    DON'T EAT,2463.1167,2444.968,2249.349
219,2,False,left,approach,pos,cake24_crop.jpg,3,22,1.0,218.0,1,2465.6494,98.0,22.0,EAT                                    DON'T EAT,2465.135,2444.968,2249.349
220,2,False,left,approach,pos,cake12_crop.jpg,3,22,1.0,219.0,1,2467.7637,98.0,22.0,EAT                                    DON'T EAT,2467.1536,2444.968,2249.349
221,3,True,left,approach,pos,cake7_crop.jpg,3,23,1.0,220.0,1,2484.8845,98.0,23.0,EAT                                    DON'T EAT,2484.251,2480.2307,2249.349
222,3,False,left,avoid,pos,meat1_crop.jpg,3,23,1.0,221.0,2,2487.101,98.0,23.0,EAT                                    DON'T EAT,2486.2693,2480.2307,2249.349
223,3,False,left,avoid,pos,meat18_crop.jpg,3,23,1.0,222.0,2,2489.131,98.0,23.0,EAT                                    DON'T EAT,2488.2876,2480.2307,2249.349
224,3,False,left,avoid,pos,meat14_crop.jpg,3,23,1.0,223.0,2,2491.065,98.0,23.0,EAT                                    DON'T EAT,2490.3057,2480.2307,2249.349
225,3,False,left,avoid,pos,meat23_crop.jpg,3,23,1.0,224.0,2,2493.0525,98.0,23.0,EAT                                    DON'T EAT,2492.3245,2480.2307,2249.349
226,3,False,left,avoid,pos,meat4_crop.jpg,3,23,1.0,225.0,2,2495.1123,98.0,23.0,EAT                                    DON'T EAT,2494.3428,2480.2307,2249.349
227,3,False,left,avoid,pos,meat3_crop.jpg,3,23,1.0,226.0,2,2497.0488,98.0,23.0,EAT                                    DON'T EAT,2496.3613,2480.2307,2249.349
228,3,False,left,avoid,pos,meat21_crop.jpg,3,23,1.0,227.0,2,2498.9585,98.0,23.0,EAT                                    DON'T EAT,2498.3792,2480.2307,2249.349
229,3,False,left,avoid,pos,meat19_crop.jpg,3,23,1.0,228.0,2,2500.9072,98.0,23.0,EAT                                    DON'T EAT,2500.3977,2480.2307,2249.349
230,3,True,left,approach,neg,insect2_crop.jpg,3,23,1.0,229.0,1,2503.0583,98.0,23.0,EAT                                    DON'T EAT,2502.4163,2480.2307,2249.349
231,1,True,left,avoid,neg,fungus5_crop.jpg,3,24,1.0,230.0,2,2520.3752,98.0,24.0,EAT                                    DON'T EAT,2519.6638,2515.6438,2249.349
232,1,False,left,approach,pos,cake28_crop.jpg,3,24,1.0,231.0,1,2522.3252,98.0,24.0,EAT                                    DON'T EAT,2521.682,2515.6438,2249.349
233,1,False,left,approach,pos,cake22_crop.jpg,3,24,1.0,232.0,1,2524.344,98.0,24.0,EAT                                    DON'T EAT,2523.7004,2515.6438,2249.349
234,1,False,left,approach,pos,cake2_crop.jpg,3,24,1.0,233.0,1,2526.3196,98.0,24.0,EAT                                    DON'T EAT,2525.7188,2515.6438,2249.349
235,1,True,left,avoid,pos,meat11_crop.jpg,3,24,1.0,234.0,2,2528.3896,98.0,24.0,EAT                                    DON'T EAT,2527.737,2515.6438,2249.349
236,1,False,left,approach,pos,cake40_crop.jpg,3,24,1.0,235.0,1,2530.3584,98.0,24.0,EAT                                    DON'T EAT,2529.7556,2515.6438,2249.349
237,1,False,left,approach,pos,cake32_crop.jpg,3,24,1.0,236.0,1,2532.6794,98.0,24.0,EAT                                    DON'T EAT,2531.774,2515.6438,2249.349
238,1,False,left,approach,pos,cake6_crop.jpg,3,24,1.0,237.0,1,2534.8481,98.0,24.0,EAT                                    DON'T EAT,2533.7922,2515.6438,2249.349
239,1,False,left,approach,pos,cake33_crop.jpg,3,24,1.0,238.0,1,2536.4111,98.0,24.0,EAT                                    DON'T EAT,2535.8105,2515.6438,2249.349
240,1,False,left,approach,pos,cake8_crop.jpg,3,24,1.0,239.0,1,2538.441,98.0,24.0,EAT                                    DON'T EAT,2537.8289,2515.6438,2249.349
241,3,False,left,approach,pos,cake36_crop.jpg,4,25,1.0,240.0,1,2629.2583,98.0,25.0,EAT                                    DON'T EAT,2628.721,2624.7007,2613.177
242,3,True,left,avoid,neg,fungus17_crop.jpg,4,25,1.0,241.0,2,2631.5085,98.0,25.0,EAT                                    DON'T EAT,2630.7393,2624.7007,2613.177
243,3,False,left,approach,pos,cake30_crop.jpg,4,25,1.0,242.0,1,2633.4524,98.0,25.0,EAT                                    DON'T EAT,2632.7573,2624.7007,2613.177
244,3,False,left,approach,pos,cake9_crop.jpg,4,25,1.0,243.0,1,2635.356,98.0,25.0,EAT                                    DON'T EAT,2634.776,2624.7007,2613.177
245,3,True,left,avoid,pos,meat36_crop.jpg,4,25,1.0,244.0,1,2637.2695,98.0,25.0,EAT                                    DON'T EAT,2636.7944,2624.7007,2613.177
246,3,False,left,approach,pos,cake37_crop.jpg,4,25,1.0,245.0,1,2639.4553,98.0,25.0,EAT                                    DON'T EAT,2638.8127,2624.7007,2613.177
247,3,False,left,approach,pos,cake29_crop.jpg,4,25,1.0,246.0,1,2641.42,98.0,25.0,EAT                                    DON'T EAT,2640.831,2624.7007,2613.177
248,3,False,left,approach,pos,cake27_crop.jpg,4,25,1.0,247.0,1,2643.3733,98.0,25.0,EAT                                    DON'T EAT,2642.8489,2624.7007,2613.177
249,3,False,left,approach,pos,cake10_crop.jpg,4,25,1.0,248.0,1,2645.4463,98.0,25.0,EAT                                    DON'T EAT,2644.8677,2624.7007,2613.177
250,3,False,left,approach,pos,cake21_crop.jpg,4,25,1.0,249.0,1,2647.4543,98.0,25.0,EAT                                    DON'T EAT,2646.886,2624.7007,2613.177
251,3,False,right,approach,neg,insect21_crop.jpg,4,26,1.0,250.0,1,2664.0693,98.0,26.0,EAT                                    DON'T EAT,2663.1829,2659.1628,2613.177
252,3,False,right,approach,neg,insect38_crop.jpg,4,26,1.0,251.0,1,2665.8762,98.0,26.0,EAT                                    DON'T EAT,2665.2014,2659.1628,2613.177
253,3,False,right,approach,neg,insect33_crop.jpg,4,26,1.0,252.0,1,2667.86,98.0,26.0,EAT                                    DON'T EAT,2667.2197,2659.1628,2613.177
254,3,False,right,approach,neg,insect18_crop.jpg,4,26,1.0,253.0,1,2669.8396,98.0,26.0,EAT                                    DON'T EAT,2669.2378,2659.1628,2613.177
255,3,False,right,approach,neg,insect15_crop.jpg,4,26,1.0,254.0,1,2671.7505,98.0,26.0,EAT                                    DON'T EAT,2671.2563,2659.1628,2613.177
256,3,True,right,avoid,pos,meat32_crop.jpg,4,26,1.0,255.0,2,2673.9285,98.0,26.0,EAT                                    DON'T EAT,2673.2747,2659.1628,2613.177
257,3,False,right,approach,neg,insect22_crop.jpg,4,26,1.0,256.0,1,2676.062,98.0,26.0,EAT                                    DON'T EAT,2675.293,2659.1628,2613.177
258,3,True,right,avoid,neg,fungus2_crop.jpg,4,26,1.0,257.0,2,2678.0598,98.0,26.0,EAT                                    DON'T EAT,2677.3113,2659.1628,2613.177
259,3,False,right,approach,neg,insect34_crop.jpg,4,26,1.0,258.0,1,2680.005,98.0,26.0,EAT                                    DON'T EAT,2679.3296,2659.1628,2613.177
260,3,False,right,approach,neg,insect30_crop.jpg,4,26,1.0,259.0,1,2682.0012,98.0,26.0,EAT                                    DON'T EAT,2681.348,2659.1628,2613.177
261,3,False,right,avoid,neg,fungus33_crop.jpg,4,27,1.0,260.0,2,2699.3064,98.0,27.0,EAT                                    DON'T EAT,2698.5122,2694.4922,2613.177
262,3,False,right,avoid,neg,fungus26_crop.jpg,4,27,1.0,261.0,2,2701.278,98.0,27.0,EAT                                    DON'T EAT,2700.5305,2694.4922,2613.177
263,3,False,right,avoid,neg,fungus3_crop.jpg,4,27,1.0,262.0,2,2703.3079,98.0,27.0,EAT                                    DON'T EAT,2702.5488,2694.4922,2613.177
264,3,False,right,avoid,neg,fungus1_crop.jpg,4,27,1.0,263.0,2,2705.1377,98.0,27.0,EAT                                    DON'T EAT,2704.5671,2694.4922,2613.177
265,3,False,right,avoid,neg,fungus12_crop.jpg,4,27,1.0,264.0,2,2707.2278,98.0,27.0,EAT                                    DON'T EAT,2706.5854,2694.4922,2613.177
266,3,False,right,avoid,neg,fungus22_crop.jpg,4,27,1.0,265.0,2,2709.1711,98.0,27.0,EAT                                    DON'T EAT,2708.604,2694.4922,2613.177
267,3,True,right,approach,neg,insect9_crop.jpg,4,27,1.0,266.0,1,2711.318,98.0,27.0,EAT                                    DON'T EAT,2710.6223,2694.4922,2613.177
268,3,False,right,avoid,neg,fungus5_crop.jpg,4,27,1.0,267.0,2,2713.4,98.0,27.0,EAT                                    DON'T EAT,2712.6406,2694.4922,2613.177
269,3,True,right,approach,pos,cake8_crop.jpg,4,27,1.0,268.0,1,2715.4072,98.0,27.0,EAT                                    DON'T EAT,2714.659,2694.4922,2613.177
270,3,False,right,avoid,neg,fungus13_crop.jpg,4,27,1.0,269.0,2,2717.5632,98.0,27.0,EAT                                    DON'T EAT,2716.6772,2694.4922,2613.177
271,3,False,left,avoid,neg,fungus10_crop.jpg,4,28,1.0,270.0,2,2736.8909,98.0,28.0,EAT                                    DON'T EAT,2736.227,2732.2068,2613.177
272,3,False,left,avoid,neg,fungus2_crop.jpg,4,28,1.0,271.0,2,2738.8674,98.0,28.0,EAT                                    DON'T EAT,2738.2449,2732.2068,2613.177
273,3,True,left,approach,neg,insect17_crop.jpg,4,28,1.0,272.0,1,2740.869,98.0,28.0,EAT                                    DON'T EAT,2740.264,2732.2068,2613.177
274,3,False,left,avoid,neg,fungus24_crop.jpg,4,28,1.0,273.0,2,2742.935,98.0,28.0,EAT                                    DON'T EAT,2742.2815,2732.2068,2613.177
275,3,False,left,avoid,neg,fungus22_crop.jpg,4,28,1.0,274.0,2,2744.91,98.0,28.0,EAT                                    DON'T EAT,2744.3003,2732.2068,2613.177
276,3,True,left,approach,pos,cake5_crop.jpg,4,28,1.0,275.0,1,2746.941,98.0,28.0,EAT                                    DON'T EAT,2746.3186,2732.2068,2613.177
277,3,False,left,avoid,neg,fungus30_crop.jpg,4,28,1.0,276.0,2,2749.0112,98.0,28.0,EAT                                    DON'T EAT,2748.337,2732.2068,2613.177
278,3,False,left,avoid,neg,fungus38_crop.jpg,4,28,1.0,277.0,2,2750.9473,98.0,28.0,EAT                                    DON'T EAT,2750.3547,2732.2068,2613.177
279,3,False,left,avoid,neg,fungus20_crop.jpg,4,28,1.0,278.0,2,2752.9932,98.0,28.0,EAT                                    DON'T EAT,2752.3735,2732.2068,2613.177
280,3,False,left,avoid,neg,fungus28_crop.jpg,4,28,1.0,279.0,2,2754.9617,98.0,28.0,EAT                                    DON'T EAT,2754.392,2732.2068,2613.177
281,1,False,right,avoid,pos,meat2_crop.jpg,4,29,1.0,280.0,2,2774.1082,98.0,29.0,EAT                                    DON'T EAT,2773.191,2769.1707,2613.177
282,1,True,right,approach,pos,cake30_crop.jpg,4,29,1.0,281.0,1,2775.906,98.0,29.0,EAT                                    DON'T EAT,2775.2092,2769.1707,2613.177
283,1,False,right,avoid,pos,meat33_crop.jpg,4,29,1.0,282.0,2,2777.8398,98.0,29.0,EAT                                    DON'T EAT,2777.2275,2769.1707,2613.177
284,1,False,right,avoid,pos,meat9_crop.jpg,4,29,1.0,283.0,2,2779.9504,98.0,29.0,EAT                                    DON'T EAT,2779.2458,2769.1707,2613.177
285,1,False,right,avoid,pos,meat22_crop.jpg,4,29,1.0,284.0,2,2782.1294,98.0,29.0,EAT                                    DON'T EAT,2781.2644,2769.1707,2613.177
286,1,False,right,avoid,pos,meat30_crop.jpg,4,29,1.0,285.0,2,2784.032,98.0,29.0,EAT                                    DON'T EAT,2783.2825,2769.1707,2613.177
287,1,False,right,avoid,pos,meat17_crop.jpg,4,29,1.0,286.0,2,2785.9739,98.0,29.0,EAT                                    DON'T EAT,2785.3008,2769.1707,2613.177
288,1,False,right,avoid,pos,meat34_crop.jpg,4,29,1.0,287.0,2,2787.9604,98.0,29.0,EAT                                    DON'T EAT,2787.319,2769.1707,2613.177
289,1,False,right,avoid,pos,meat36_crop.jpg,4,29,1.0,288.0,2,2789.8638,98.0,29.0,EAT                                    DON'T EAT,2789.3374,2769.1707,2613.177
290,1,True,right,approach,neg,insect31_crop.jpg,4,29,1.0,289.0,1,2792.0369,98.0,29.0,EAT                                    DON'T EAT,2791.3555,2769.1707,2613.177
291,0,True,left,approach,pos,cake15_crop.jpg,4,30,1.0,290.0,1,2811.269,98.0,30.0,EAT                                    DON'T EAT,2810.488,2806.4685,2613.177
292,0,False,left,avoid,neg,fungus40_crop.jpg,4,30,1.0,291.0,2,2813.1912,98.0,30.0,EAT                                    DON'T EAT,2812.5068,2806.4685,2613.177
293,0,False,left,avoid,neg,fungus4_crop.jpg,4,30,1.0,292.0,2,2815.1997,98.0,30.0,EAT                                    DON'T EAT,2814.525,2806.4685,2613.177
294,0,False,left,avoid,neg,fungus34_crop.jpg,4,30,1.0,293.0,2,2817.452,98.0,30.0,EAT                                    DON'T EAT,2816.5435,2806.4685,2613.177
295,0,False,left,avoid,neg,fungus9_crop.jpg,4,30,1.0,294.0,2,2819.1338,98.0,30.0,EAT                                    DON'T EAT,2818.562,2806.4685,2613.177
296,0,False,left,avoid,neg,fungus6_crop.jpg,4,30,1.0,295.0,2,2821.192,98.0,30.0,EAT                                    DON'T EAT,2820.5803,2806.4685,2613.177
297,0,False,left,avoid,neg,fungus31_crop.jpg,4,30,1.0,296.0,2,2823.2014,98.0,30.0,EAT                                    DON'T EAT,2822.5986,2806.4685,2613.177
298,0,False,left,avoid,neg,fungus8_crop.jpg,4,30,1.0,297.0,2,2825.176,98.0,30.0,EAT                                    DON'T EAT,2824.617,2806.4685,2613.177
299,0,False,left,avoid,neg,fungus27_crop.jpg,4,30,1.0,298.0,2,2827.2268,98.0,30.0,EAT                                    DON'T EAT,2826.635,2806.4685,2613.177
300,0,True,left,approach,neg,insect21_crop.jpg,4,30,1.0,299.0,1,2829.3494,98.0,30.0,EAT                                    DON'T EAT,2828.6536,2806.4685,2613.177
301,0,True,right,avoid,pos,meat5_crop.jpg,4,31,1.0,300.0,2,2846.3284,98.0,31.0,EAT                                    DON'T EAT,2845.601,2841.581,2613.177
302,0,False,right,approach,neg,insect20_crop.jpg,4,31,1.0,301.0,1,2848.2517,98.0,31.0,EAT                                    DON'T EAT,2847.6194,2841.581,2613.177
303,0,False,right,approach,neg,insect36_crop.jpg,4,31,1.0,302.0,1,2850.1975,98.0,31.0,EAT                                    DON'T EAT,2849.6377,2841.581,2613.177
304,0,True,right,avoid,neg,fungus17_crop.jpg,4,31,1.0,303.0,2,2852.3398,98.0,31.0,EAT                                    DON'T EAT,2851.656,2841.581,2613.177
305,0,False,right,approach,neg,insect12_crop.jpg,4,31,1.0,304.0,1,2854.4106,98.0,31.0,EAT                                    DON'T EAT,2853.6746,2841.581,2613.177
306,0,False,right,approach,neg,insect4_crop.jpg,4,31,1.0,305.0,1,2856.3455,98.0,31.0,EAT                                    DON'T EAT,2855.6929,2841.581,2613.177
307,0,False,right,approach,neg,insect19_crop.jpg,4,31,1.0,306.0,1,2858.2227,98.0,31.0,EAT                                    DON'T EAT,2857.711,2841.581,2613.177
308,0,False,right,approach,neg,insect26_crop.jpg,4,31,1.0,307.0,1,2860.3098,98.0,31.0,EAT                                    DON'T EAT,2859.7295,2841.581,2613.177
309,0,False,right,approach,neg,insect2_crop.jpg,4,31,1.0,308.0,1,2862.297,98.0,31.0,EAT                                    DON'T EAT,2861.7478,2841.581,2613.177
310,0,False,right,approach,neg,insect25_crop.jpg,4,31,1.0,309.0,1,2864.3145,98.0,31.0,EAT                                    DON'T EAT,2863.766,2841.581,2613.177
311,3,False,right,approach,pos,cake17_crop.jpg,4,32,1.0,310.0,1,2881.7188,98.0,32.0,EAT                                    DON'T EAT,2880.8635,2876.8438,2613.177
312,3,True,right,avoid,pos,meat18_crop.jpg,4,32,1.0,311.0,2,2883.6514,98.0,32.0,EAT                                    DON'T EAT,2882.882,2876.8438,2613.177
313,3,False,right,approach,pos,cake22_crop.jpg,4,32,1.0,312.0,1,2885.4902,98.0,32.0,EAT                                    DON'T EAT,2884.9001,2876.8438,2613.177
314,3,False,right,approach,pos,cake28_crop.jpg,4,32,1.0,313.0,1,2887.5835,98.0,32.0,EAT                                    DON'T EAT,2886.9185,2876.8438,2613.177
315,3,False,right,approach,pos,cake4_crop.jpg,4,32,1.0,314.0,1,2889.6335,98.0,32.0,EAT                                    DON'T EAT,2888.937,2876.8438,2613.177
316,3,True,right,avoid,neg,fungus9_crop.jpg,4,32,1.0,315.0,2,2891.6702,98.0,32.0,EAT                                    DON'T EAT,2890.955,2876.8438,2613.177
317,3,False,right,approach,pos,cake32_crop.jpg,4,32,1.0,316.0,1,2893.8374,98.0,32.0,EAT                                    DON'T EAT,2892.9739,2876.8438,2613.177
318,3,False,right,approach,pos,cake39_crop.jpg,4,32,1.0,317.0,1,2895.6245,98.0,32.0,EAT                                    DON'T EAT,2894.992,2876.8438,2613.177
319,3,False,right,approach,pos,cake26_crop.jpg,4,32,1.0,318.0,1,2897.6106,98.0,32.0,EAT                                    DON'T EAT,2897.0103,2876.8438,2613.177
320,3,False,right,approach,pos,cake19_crop.jpg,4,32,1.0,319.0,1,2899.6497,98.0,32.0,EAT                                    DON'T EAT,2899.0286,2876.8438,2613.177
