subject,trial_number,n_block,catch,hand,mot,val,stim_name,run_number,num_block,ran,order,response,time_of_response,subject_number,left_side_resp_label,trial_onset,blk_instr_onset,baseline_onset,response_hand,response_cleaned,response_lat,response_lat_cleaned,response_meaning,response_meaning_cleaned,condition_mot,condition_val,condition,correct,correct_cleaned,rt
sub-110,1,1,FALSE,left,approach,neg,insect15_crop.jpg,1,1,TRUE,0,1,1929.958,110,EAT                                    DON'T EAT,1929.0177,1924.9977,1911.2314,right,1,left,left,eat,eat,approach,neg,approach-neg,1,1,940.2999999998137
sub-110,2,1,FALSE,left,approach,neg,insect3_crop.jpg,1,1,TRUE,1,1,1931.6493,110,EAT                                    DON'T EAT,1931.036,1924.9977,1911.2314,right,1,left,left,eat,eat,approach,neg,approach-neg,1,1,613.3000000000466
sub-110,3,1,FALSE,left,approach,neg,insect28_crop.jpg,1,1,TRUE,2,1,1933.6414,110,EAT                                    DON'T EAT,1933.0544,1924.9977,1911.2314,right,1,left,left,eat,eat,approach,neg,approach-neg,1,1,587
sub-110,4,1,TRUE,left,avoid,neg,fungus21_crop.jpg,1,1,TRUE,3,2,1936.1589,110,EAT                                    DON'T EAT,1935.0756,1924.9977,1911.2314,right,2,right,right,not_eat,not_eat,approach,neg,approach-neg,1,1,1083.3000000000466
sub-110,5,1,FALSE,left,approach,neg,insect21_crop.jpg,1,1,TRUE,4,1,1937.8008,110,EAT                                    DON'T EAT,1937.0925,1924.9977,1911.2314,right,1,left,left,eat,eat,approach,neg,approach-neg,1,1,708.3000000000466
sub-110,6,1,FALSE,left,approach,neg,insect35_crop.jpg,1,1,TRUE,5,1,1939.7122,110,EAT                                    DON'T EAT,1939.109,1924.9977,1911.2314,right,1,left,left,eat,eat,approach,neg,approach-neg,1,1,603.1999999999534
sub-110,7,1,FALSE,left,approach,neg,insect20_crop.jpg,1,1,TRUE,6,1,1941.6464,110,EAT                                    DON'T EAT,1941.1278,1924.9977,1911.2314,right,1,left,left,eat,eat,approach,neg,approach-neg,1,1,518.6000000000931
sub-110,8,1,FALSE,left,approach,neg,insect19_crop.jpg,1,1,TRUE,7,1,1943.662,110,EAT                                    DON'T EAT,1943.1454,1924.9977,1911.2314,right,1,left,left,eat,eat,approach,neg,approach-neg,1,1,516.5999999998603
sub-110,9,1,TRUE,left,avoid,pos,meat10_crop.jpg,1,1,TRUE,8,2,1946.096,110,EAT                                    DON'T EAT,1945.1644,1924.9977,1911.2314,right,2,right,right,not_eat,not_eat,approach,neg,approach-neg,1,1,931.6000000000931
sub-110,10,1,FALSE,left,approach,neg,insect1_crop.jpg,1,1,TRUE,9,1,1947.7865,110,EAT                                    DON'T EAT,1947.1827,1924.9977,1911.2314,right,1,left,left,eat,eat,approach,neg,approach-neg,1,1,603.8000000000466
sub-110,11,1,FALSE,left,avoid,pos,meat18_crop.jpg,1,2,TRUE,10,2,1966.7279,110,EAT                                    DON'T EAT,1965.6814,1961.6611,1911.2314,right,2,right,right,not_eat,not_eat,avoid,pos,avoid-pos,1,1,1046.5000000002328
sub-110,12,1,FALSE,left,avoid,pos,meat34_crop.jpg,1,2,TRUE,11,2,1968.6082,110,EAT                                    DON'T EAT,1967.7,1961.6611,1911.2314,right,2,right,right,not_eat,not_eat,avoid,pos,avoid-pos,1,1,908.1999999999534
sub-110,13,1,FALSE,left,avoid,pos,meat7_crop.jpg,1,2,TRUE,12,2,1970.3511,110,EAT                                    DON'T EAT,1969.718,1961.6611,1911.2314,right,2,right,right,not_eat,not_eat,avoid,pos,avoid-pos,1,1,633.1000000000931
sub-110,14,1,TRUE,left,approach,neg,insect5_crop.jpg,1,2,TRUE,13,1,1972.4884,110,EAT                                    DON'T EAT,1971.7363,1961.6611,1911.2314,right,1,left,left,eat,eat,avoid,pos,avoid-pos,1,1,752.0999999998603
sub-110,15,1,FALSE,left,avoid,pos,meat31_crop.jpg,1,2,TRUE,14,2,1974.5193,110,EAT                                    DON'T EAT,1973.7549,1961.6611,1911.2314,right,2,right,right,not_eat,not_eat,avoid,pos,avoid-pos,1,1,764.3999999999069
sub-110,16,1,FALSE,left,avoid,pos,meat38_crop.jpg,1,2,TRUE,15,2,1976.3761,110,EAT                                    DON'T EAT,1975.773,1961.6611,1911.2314,right,2,right,right,not_eat,not_eat,avoid,pos,avoid-pos,1,1,603.0999999998603
sub-110,17,1,TRUE,left,approach,pos,cake4_crop.jpg,1,2,TRUE,16,1,1978.7416,110,EAT                                    DON'T EAT,1977.7914,1961.6611,1911.2314,right,1,left,left,eat,eat,avoid,pos,avoid-pos,1,1,950.1999999999534
sub-110,18,1,FALSE,left,avoid,pos,meat39_crop.jpg,1,2,TRUE,17,2,1980.5585,110,EAT                                    DON'T EAT,1979.8098,1961.6611,1911.2314,right,2,right,right,not_eat,not_eat,avoid,pos,avoid-pos,1,1,748.6999999999534
sub-110,19,1,FALSE,left,avoid,pos,meat13_crop.jpg,1,2,TRUE,18,2,1982.4724,110,EAT                                    DON'T EAT,1981.8281,1961.6611,1911.2314,right,2,right,right,not_eat,not_eat,avoid,pos,avoid-pos,1,1,644.3000000002794
sub-110,20,1,FALSE,left,avoid,pos,meat17_crop.jpg,1,2,TRUE,19,2,1984.6195,110,EAT                                    DON'T EAT,1983.8463,1961.6611,1911.2314,right,2,right,right,not_eat,not_eat,avoid,pos,avoid-pos,1,1,773.2000000001863
sub-110,21,1,FALSE,right,approach,pos,cake1_crop.jpg,1,3,TRUE,20,1,2003.5977,110,EAT                                    DON'T EAT,2002.7122,1998.6919,1911.2314,right,1,left,left,eat,eat,approach,pos,approach-pos,1,1,885.5
sub-110,22,1,FALSE,right,approach,pos,cake11_crop.jpg,1,3,TRUE,21,1,2005.3776,110,EAT                                    DON'T EAT,2004.7305,1998.6919,1911.2314,right,1,left,left,eat,eat,approach,pos,approach-pos,1,1,647.1000000000931
sub-110,23,1,TRUE,right,avoid,pos,meat38_crop.jpg,1,3,TRUE,22,2,2007.4894,110,EAT                                    DON'T EAT,2006.7488,1998.6919,1911.2314,right,2,right,right,not_eat,not_eat,approach,pos,approach-pos,1,1,740.5999999998603
sub-110,24,1,FALSE,right,approach,pos,cake13_crop.jpg,1,3,TRUE,23,1,2009.3799,110,EAT                                    DON'T EAT,2008.7672,1998.6919,1911.2314,right,1,left,left,eat,eat,approach,pos,approach-pos,1,1,612.6999999999534
sub-110,25,1,TRUE,right,avoid,neg,fungus12_crop.jpg,1,3,TRUE,24,2,2012.151,110,EAT                                    DON'T EAT,2010.7855,1998.6919,1911.2314,right,2,right,right,not_eat,not_eat,approach,pos,approach-pos,1,1,1365.5
sub-110,26,1,FALSE,right,approach,pos,cake17_crop.jpg,1,3,TRUE,25,1,2013.4286,110,EAT                                    DON'T EAT,2012.8038,1998.6919,1911.2314,right,1,left,left,eat,eat,approach,pos,approach-pos,1,1,624.8000000000466
sub-110,27,1,FALSE,right,approach,pos,cake5_crop.jpg,1,3,TRUE,26,1,2015.3607,110,EAT                                    DON'T EAT,2014.8223,1998.6919,1911.2314,right,1,left,left,eat,eat,approach,pos,approach-pos,1,1,538.3999999999069
sub-110,28,1,FALSE,right,approach,pos,cake16_crop.jpg,1,3,TRUE,27,1,2017.4944,110,EAT                                    DON'T EAT,2016.8402,1998.6919,1911.2314,right,1,left,left,eat,eat,approach,pos,approach-pos,1,1,654.1999999999534
sub-110,29,1,FALSE,right,approach,pos,cake30_crop.jpg,1,3,TRUE,28,1,2019.449,110,EAT                                    DON'T EAT,2018.8588,1998.6919,1911.2314,right,1,left,left,eat,eat,approach,pos,approach-pos,1,1,590.1999999999534
sub-110,30,1,FALSE,right,approach,pos,cake9_crop.jpg,1,3,TRUE,29,1,2021.4781,110,EAT                                    DON'T EAT,2020.8772,1998.6919,1911.2314,right,1,left,left,eat,eat,approach,pos,approach-pos,1,1,600.9000000001397
sub-110,31,2,TRUE,right,approach,neg,insect11_crop.jpg,1,4,TRUE,30,1,2039.7267,110,EAT                                    DON'T EAT,2039.059,2035.0386,1911.2314,right,1,left,left,eat,eat,avoid,neg,avoid-neg,1,1,667.6999999999534
sub-110,32,2,FALSE,right,avoid,neg,fungus33_crop.jpg,1,4,TRUE,31,2,2041.9113,110,EAT                                    DON'T EAT,2041.0771,2035.0386,1911.2314,right,2,right,right,not_eat,not_eat,avoid,neg,avoid-neg,1,1,834.2000000001863
sub-110,33,2,FALSE,right,avoid,neg,fungus16_crop.jpg,1,4,TRUE,32,2,2043.8757,110,EAT                                    DON'T EAT,2043.0956,2035.0386,1911.2314,right,2,right,right,not_eat,not_eat,avoid,neg,avoid-neg,1,1,780.0999999998603
sub-110,34,2,FALSE,right,avoid,neg,fungus40_crop.jpg,1,4,TRUE,33,2,2045.7894,110,EAT                                    DON'T EAT,2045.114,2035.0386,1911.2314,right,2,right,right,not_eat,not_eat,avoid,neg,avoid-neg,1,1,675.3999999999069
sub-110,35,2,FALSE,right,avoid,neg,fungus38_crop.jpg,1,4,TRUE,34,2,2047.8721,110,EAT                                    DON'T EAT,2047.1323,2035.0386,1911.2314,right,2,right,right,not_eat,not_eat,avoid,neg,avoid-neg,1,1,739.8000000000466
sub-110,36,2,FALSE,right,avoid,neg,fungus17_crop.jpg,1,4,TRUE,35,2,2049.9104,110,EAT                                    DON'T EAT,2049.1506,2035.0386,1911.2314,right,2,right,right,not_eat,not_eat,avoid,neg,avoid-neg,1,1,759.8000000002794
sub-110,37,2,FALSE,right,avoid,neg,fungus20_crop.jpg,1,4,TRUE,36,2,2051.8994,110,EAT                                    DON'T EAT,2051.169,2035.0386,1911.2314,right,2,right,right,not_eat,not_eat,avoid,neg,avoid-neg,1,1,730.3999999999069
sub-110,38,2,FALSE,right,avoid,neg,fungus1_crop.jpg,1,4,TRUE,37,2,2053.7656,110,EAT                                    DON'T EAT,2053.187,2035.0386,1911.2314,right,2,right,right,not_eat,not_eat,avoid,neg,avoid-neg,1,1,578.6000000000931
sub-110,39,2,TRUE,right,approach,pos,cake29_crop.jpg,1,4,TRUE,38,1,2055.9055,110,EAT                                    DON'T EAT,2055.2056,2035.0386,1911.2314,right,1,left,left,eat,eat,avoid,neg,avoid-neg,1,1,699.8999999999069
sub-110,40,2,FALSE,right,avoid,neg,fungus5_crop.jpg,1,4,TRUE,39,2,2058.0447,110,EAT                                    DON'T EAT,2057.2239,2035.0386,1911.2314,right,2,right,right,not_eat,not_eat,avoid,neg,avoid-neg,1,1,820.8000000000466
sub-110,41,0,FALSE,left,avoid,pos,meat23_crop.jpg,1,5,TRUE,40,2,2077.8599,110,EAT                                    DON'T EAT,2076.9736,2072.9539,1911.2314,right,2,right,right,not_eat,not_eat,avoid,pos,avoid-pos,1,1,886.3000000000466
sub-110,42,0,FALSE,left,avoid,pos,meat2_crop.jpg,1,5,TRUE,41,2,2079.5852,110,EAT                                    DON'T EAT,2078.992,2072.9539,1911.2314,right,2,right,right,not_eat,not_eat,avoid,pos,avoid-pos,1,1,593.1999999997206
sub-110,43,0,FALSE,left,avoid,pos,meat25_crop.jpg,1,5,TRUE,42,2,2081.6672,110,EAT                                    DON'T EAT,2081.0105,2072.9539,1911.2314,right,2,right,right,not_eat,not_eat,avoid,pos,avoid-pos,1,1,656.7000000001863
sub-110,44,0,FALSE,left,avoid,pos,meat14_crop.jpg,1,5,TRUE,43,2,2083.5261,110,EAT                                    DON'T EAT,2083.0288,2072.9539,1911.2314,right,2,right,right,not_eat,not_eat,avoid,pos,avoid-pos,1,1,497.30000000004657
sub-110,45,0,FALSE,left,avoid,pos,meat33_crop.jpg,1,5,TRUE,44,2,2085.6392,110,EAT                                    DON'T EAT,2085.047,2072.9539,1911.2314,right,2,right,right,not_eat,not_eat,avoid,pos,avoid-pos,1,1,592.2000000001863
sub-110,46,0,FALSE,left,avoid,pos,meat4_crop.jpg,1,5,TRUE,45,2,2087.8496,110,EAT                                    DON'T EAT,2087.0654,2072.9539,1911.2314,right,2,right,right,not_eat,not_eat,avoid,pos,avoid-pos,1,1,784.2000000001863
sub-110,47,0,TRUE,left,approach,neg,insect17_crop.jpg,1,5,TRUE,46,1,2089.75,110,EAT                                    DON'T EAT,2089.0837,2072.9539,1911.2314,right,1,left,left,eat,eat,avoid,pos,avoid-pos,1,1,666.2999999998137
sub-110,48,0,TRUE,left,approach,pos,cake34_crop.jpg,1,5,TRUE,47,2,2091.7046,110,EAT                                    DON'T EAT,2091.102,2072.9539,1911.2314,right,2,right,right,not_eat,not_eat,avoid,pos,avoid-pos,0,0,602.600000000326
sub-110,49,0,FALSE,left,avoid,pos,meat37_crop.jpg,1,5,TRUE,48,2,2094.0298,110,EAT                                    DON'T EAT,2093.1206,2072.9539,1911.2314,right,2,right,right,not_eat,not_eat,avoid,pos,avoid-pos,1,1,909.1999999997206
sub-110,50,0,FALSE,left,avoid,pos,meat21_crop.jpg,1,5,TRUE,49,2,2096.016,110,EAT                                    DON'T EAT,2095.1387,2072.9539,1911.2314,right,2,right,right,not_eat,not_eat,avoid,pos,avoid-pos,1,1,877.3000000000466
sub-110,51,2,FALSE,right,approach,neg,insect1_crop.jpg,1,6,TRUE,50,1,2111.969,110,EAT                                    DON'T EAT,2111.2188,2107.1987,1911.2314,right,1,left,left,eat,eat,approach,neg,approach-neg,1,1,750.1999999997206
sub-110,52,2,FALSE,right,approach,neg,insect30_crop.jpg,1,6,TRUE,51,1,2113.8699,110,EAT                                    DON'T EAT,2113.237,2107.1987,1911.2314,right,1,left,left,eat,eat,approach,neg,approach-neg,1,1,632.9000000003725
sub-110,53,2,FALSE,right,approach,neg,insect29_crop.jpg,1,6,TRUE,52,1,2115.9106,110,EAT                                    DON'T EAT,2115.2554,2107.1987,1911.2314,right,1,left,left,eat,eat,approach,neg,approach-neg,1,1,655.2000000001863
sub-110,54,2,FALSE,right,approach,neg,insect9_crop.jpg,1,6,TRUE,53,1,2117.8013,110,EAT                                    DON'T EAT,2117.2737,2107.1987,1911.2314,right,1,left,left,eat,eat,approach,neg,approach-neg,1,1,527.6000000000931
sub-110,55,2,FALSE,right,approach,neg,insect34_crop.jpg,1,6,TRUE,54,1,2119.7363,110,EAT                                    DON'T EAT,2119.292,2107.1987,1911.2314,right,1,left,left,eat,eat,approach,neg,approach-neg,1,1,444.29999999981374
sub-110,56,2,TRUE,right,avoid,pos,meat19_crop.jpg,1,6,TRUE,55,2,2122.0837,110,EAT                                    DON'T EAT,2121.3105,2107.1987,1911.2314,right,2,right,right,not_eat,not_eat,approach,neg,approach-neg,1,1,773.2000000001863
sub-110,57,2,FALSE,right,approach,neg,insect17_crop.jpg,1,6,TRUE,56,1,2123.9104,110,EAT                                    DON'T EAT,2123.3289,2107.1987,1911.2314,right,1,left,left,eat,eat,approach,neg,approach-neg,1,1,581.5000000004657
sub-110,58,2,FALSE,right,approach,neg,insect10_crop.jpg,1,6,TRUE,57,1,2125.9287,110,EAT                                    DON'T EAT,2125.3472,2107.1987,1911.2314,right,1,left,left,eat,eat,approach,neg,approach-neg,1,1,581.4999999995343
sub-110,59,2,FALSE,right,approach,neg,insect40_crop.jpg,1,6,TRUE,58,1,2128.0732,110,EAT                                    DON'T EAT,2127.3655,2107.1987,1911.2314,right,1,left,left,eat,eat,approach,neg,approach-neg,1,1,707.6999999997206
sub-110,60,2,TRUE,right,avoid,neg,fungus30_crop.jpg,1,6,TRUE,59,2,2130.236,110,EAT                                    DON'T EAT,2129.3838,2107.1987,1911.2314,right,2,right,right,not_eat,not_eat,approach,neg,approach-neg,1,1,852.1999999997206
sub-110,61,2,FALSE,left,approach,pos,cake21_crop.jpg,1,7,TRUE,60,1,2146.7537,110,EAT                                    DON'T EAT,2145.8809,2141.8608,1911.2314,right,1,left,left,eat,eat,approach,pos,approach-pos,1,1,872.8000000002794
sub-110,62,2,FALSE,left,approach,pos,cake23_crop.jpg,1,7,TRUE,61,1,2148.4587,110,EAT                                    DON'T EAT,2147.899,2141.8608,1911.2314,right,1,left,left,eat,eat,approach,pos,approach-pos,1,1,559.7000000001863
sub-110,63,2,FALSE,left,approach,pos,cake1_crop.jpg,1,7,TRUE,62,1,2150.455,110,EAT                                    DON'T EAT,2149.9175,2141.8608,1911.2314,right,1,left,left,eat,eat,approach,pos,approach-pos,1,1,537.5
sub-110,64,2,FALSE,left,approach,pos,cake10_crop.jpg,1,7,TRUE,63,1,2152.8767,110,EAT                                    DON'T EAT,2151.9358,2141.8608,1911.2314,right,1,left,left,eat,eat,approach,pos,approach-pos,1,1,940.8999999994412
sub-110,65,2,FALSE,left,approach,pos,cake27_crop.jpg,1,7,TRUE,64,1,2154.5898,110,EAT                                    DON'T EAT,2153.9543,2141.8608,1911.2314,right,1,left,left,eat,eat,approach,pos,approach-pos,1,1,635.5000000004657
sub-110,66,2,TRUE,left,avoid,pos,meat27_crop.jpg,1,7,TRUE,65,2,2156.7305,110,EAT                                    DON'T EAT,2155.9727,2141.8608,1911.2314,right,2,right,right,not_eat,not_eat,approach,pos,approach-pos,1,1,757.8000000002794
sub-110,67,2,FALSE,left,approach,pos,cake12_crop.jpg,1,7,TRUE,66,1,2158.7493,110,EAT                                    DON'T EAT,2157.9907,2141.8608,1911.2314,right,1,left,left,eat,eat,approach,pos,approach-pos,1,1,758.6000000000931
sub-110,68,2,FALSE,left,approach,pos,cake24_crop.jpg,1,7,TRUE,67,1,2160.7368,110,EAT                                    DON'T EAT,2160.009,2141.8608,1911.2314,right,1,left,left,eat,eat,approach,pos,approach-pos,1,1,727.8000000002794
sub-110,69,2,TRUE,left,avoid,neg,fungus20_crop.jpg,1,7,TRUE,68,2,2163.0325,110,EAT                                    DON'T EAT,2162.0276,2141.8608,1911.2314,right,2,right,right,not_eat,not_eat,approach,pos,approach-pos,1,1,1004.8999999999069
sub-110,70,2,FALSE,left,approach,pos,cake37_crop.jpg,1,7,TRUE,69,1,2164.7385,110,EAT                                    DON'T EAT,2164.046,2141.8608,1911.2314,right,1,left,left,eat,eat,approach,pos,approach-pos,1,1,692.5
sub-110,71,3,FALSE,right,avoid,pos,meat4_crop.jpg,1,8,TRUE,70,2,2183.7139,110,EAT                                    DON'T EAT,2182.7449,2178.7249,1911.2314,right,2,right,right,not_eat,not_eat,avoid,pos,avoid-pos,1,1,969
sub-110,72,3,FALSE,right,avoid,pos,meat32_crop.jpg,1,8,TRUE,71,2,2185.3438,110,EAT                                    DON'T EAT,2184.7632,2178.7249,1911.2314,right,2,right,right,not_eat,not_eat,avoid,pos,avoid-pos,1,1,580.6000000005588
sub-110,73,3,FALSE,right,avoid,pos,meat10_crop.jpg,1,8,TRUE,72,2,2187.3655,110,EAT                                    DON'T EAT,2186.7815,2178.7249,1911.2314,right,2,right,right,not_eat,not_eat,avoid,pos,avoid-pos,1,1,584
sub-110,74,3,TRUE,right,approach,neg,insect2_crop.jpg,1,8,TRUE,73,1,2189.4678,110,EAT                                    DON'T EAT,2188.7996,2178.7249,1911.2314,right,1,left,left,eat,eat,avoid,pos,avoid-pos,1,1,668.2000000001863
sub-110,75,3,FALSE,right,avoid,pos,meat34_crop.jpg,1,8,TRUE,74,2,2191.5342,110,EAT                                    DON'T EAT,2190.818,2178.7249,1911.2314,right,2,right,right,not_eat,not_eat,avoid,pos,avoid-pos,1,1,716.2000000001863
sub-110,76,3,FALSE,right,avoid,pos,meat33_crop.jpg,1,8,TRUE,75,2,2193.535,110,EAT                                    DON'T EAT,2192.8362,2178.7249,1911.2314,right,2,right,right,not_eat,not_eat,avoid,pos,avoid-pos,1,1,698.7999999998137
sub-110,77,3,TRUE,right,approach,pos,cake20_crop.jpg,1,8,TRUE,76,1,2195.5823,110,EAT                                    DON'T EAT,2194.855,2178.7249,1911.2314,right,1,left,left,eat,eat,avoid,pos,avoid-pos,1,1,727.2999999998137
sub-110,78,3,FALSE,right,avoid,pos,meat13_crop.jpg,1,8,TRUE,77,2,2197.5894,110,EAT                                    DON'T EAT,2196.8733,2178.7249,1911.2314,right,2,right,right,not_eat,not_eat,avoid,pos,avoid-pos,1,1,716.0999999996275
sub-110,79,3,FALSE,right,avoid,pos,meat30_crop.jpg,1,8,TRUE,78,2,2199.675,110,EAT                                    DON'T EAT,2198.8916,2178.7249,1911.2314,right,2,right,right,not_eat,not_eat,avoid,pos,avoid-pos,1,1,783.3999999999069
sub-110,80,3,FALSE,right,avoid,pos,meat39_crop.jpg,1,8,TRUE,79,2,2201.7236,110,EAT                                    DON'T EAT,2200.91,2178.7249,1911.2314,right,2,right,right,not_eat,not_eat,avoid,pos,avoid-pos,1,1,813.5999999996275
sub-110,81,2,TRUE,left,approach,pos,cake9_crop.jpg,2,9,TRUE,80,1,2313.4412,110,EAT                                    DON'T EAT,2312.2021,2308.1821,2295.8,left,1,left,left,eat,eat,avoid,neg,avoid-neg,1,1,1239.1000000000931
sub-110,82,2,FALSE,left,avoid,neg,fungus24_crop.jpg,2,9,TRUE,81,2,2315.6882,110,EAT                                    DON'T EAT,2314.2205,2308.1821,2295.8,left,2,right,right,not_eat,not_eat,avoid,neg,avoid-neg,1,1,1467.7000000001863
sub-110,83,2,FALSE,left,avoid,neg,fungus6_crop.jpg,2,9,TRUE,82,2,2317.385,110,EAT                                    DON'T EAT,2316.2385,2308.1821,2295.8,left,2,right,right,not_eat,not_eat,avoid,neg,avoid-neg,1,1,1146.5
sub-110,84,2,FALSE,left,avoid,neg,fungus12_crop.jpg,2,9,TRUE,83,2,2319.1785,110,EAT                                    DON'T EAT,2318.257,2308.1821,2295.8,left,2,right,right,not_eat,not_eat,avoid,neg,avoid-neg,1,1,921.5
sub-110,85,2,FALSE,left,avoid,neg,fungus1_crop.jpg,2,9,TRUE,84,2,2320.972,110,EAT                                    DON'T EAT,2320.2754,2308.1821,2295.8,left,2,right,right,not_eat,not_eat,avoid,neg,avoid-neg,1,1,696.6000000000931
sub-110,86,2,FALSE,left,avoid,neg,fungus37_crop.jpg,2,9,TRUE,85,2,2323.1604,110,EAT                                    DON'T EAT,2322.294,2308.1821,2295.8,left,2,right,right,not_eat,not_eat,avoid,neg,avoid-neg,1,1,866.4000000003725
sub-110,87,2,FALSE,left,avoid,neg,fungus18_crop.jpg,2,9,TRUE,86,2,2324.9375,110,EAT                                    DON'T EAT,2324.3125,2308.1821,2295.8,left,2,right,right,not_eat,not_eat,avoid,neg,avoid-neg,1,1,625
sub-110,88,2,FALSE,left,avoid,neg,fungus38_crop.jpg,2,9,TRUE,87,2,2326.9412,110,EAT                                    DON'T EAT,2326.33,2308.1821,2295.8,left,2,right,right,not_eat,not_eat,avoid,neg,avoid-neg,1,1,611.2000000001863
sub-110,89,2,FALSE,left,avoid,neg,fungus30_crop.jpg,2,9,TRUE,88,2,2329.0344,110,EAT                                    DON'T EAT,2328.3489,2308.1821,2295.8,left,2,right,right,not_eat,not_eat,avoid,neg,avoid-neg,1,1,685.5
sub-110,90,2,TRUE,left,approach,neg,insect31_crop.jpg,2,9,TRUE,89,1,2331.1501,110,EAT                                    DON'T EAT,2330.3672,2308.1821,2295.8,left,1,left,left,eat,eat,avoid,neg,avoid-neg,1,1,782.8999999994412
sub-110,91,2,FALSE,right,approach,pos,cake19_crop.jpg,2,10,TRUE,90,1,2350.151,110,EAT                                    DON'T EAT,2349.3162,2345.2961,2295.8,left,1,left,left,eat,eat,approach,pos,approach-pos,1,1,834.7999999998137
sub-110,92,2,FALSE,right,approach,pos,cake22_crop.jpg,2,10,TRUE,91,1,2351.9153,110,EAT                                    DON'T EAT,2351.3345,2345.2961,2295.8,left,1,left,left,eat,eat,approach,pos,approach-pos,1,1,580.8000000002794
sub-110,93,2,FALSE,right,approach,pos,cake28_crop.jpg,2,10,TRUE,92,1,2354.0493,110,EAT                                    DON'T EAT,2353.353,2345.2961,2295.8,left,1,left,left,eat,eat,approach,pos,approach-pos,1,1,696.3000000002794
sub-110,94,2,FALSE,right,approach,pos,cake40_crop.jpg,2,10,TRUE,93,1,2355.9856,110,EAT                                    DON'T EAT,2355.3713,2345.2961,2295.8,left,1,left,left,eat,eat,approach,pos,approach-pos,1,1,614.3000000002794
sub-110,95,2,FALSE,right,approach,pos,cake10_crop.jpg,2,10,TRUE,94,1,2357.93,110,EAT                                    DON'T EAT,2357.3896,2345.2961,2295.8,left,1,left,left,eat,eat,approach,pos,approach-pos,1,1,540.3999999999069
sub-110,96,2,FALSE,right,approach,pos,cake26_crop.jpg,2,10,TRUE,95,1,2359.916,110,EAT                                    DON'T EAT,2359.408,2345.2961,2295.8,left,1,left,left,eat,eat,approach,pos,approach-pos,1,1,508
sub-110,97,2,FALSE,right,approach,pos,cake37_crop.jpg,2,10,TRUE,96,1,2361.8892,110,EAT                                    DON'T EAT,2361.426,2345.2961,2295.8,left,1,left,left,eat,eat,approach,pos,approach-pos,1,1,463.20000000018626
sub-110,98,2,FALSE,right,approach,pos,cake33_crop.jpg,2,10,TRUE,97,1,2364.0884,110,EAT                                    DON'T EAT,2363.4448,2345.2961,2295.8,left,1,left,left,eat,eat,approach,pos,approach-pos,1,1,643.5999999996275
sub-110,99,2,TRUE,right,avoid,pos,meat20_crop.jpg,2,10,TRUE,98,2,2366.1611,110,EAT                                    DON'T EAT,2365.4634,2345.2961,2295.8,left,2,right,right,not_eat,not_eat,approach,pos,approach-pos,1,1,697.6999999997206
sub-110,100,2,TRUE,right,avoid,neg,fungus13_crop.jpg,2,10,TRUE,99,2,2368.3672,110,EAT                                    DON'T EAT,2367.481,2345.2961,2295.8,left,2,right,right,not_eat,not_eat,approach,pos,approach-pos,1,1,886.2000000001863
sub-110,101,0,FALSE,left,avoid,neg,fungus17_crop.jpg,2,11,TRUE,100,2,2388.182,110,EAT                                    DON'T EAT,2387.348,2383.3276,2295.8,left,2,right,right,not_eat,not_eat,avoid,neg,avoid-neg,1,1,834
sub-110,102,0,TRUE,left,approach,neg,insect36_crop.jpg,2,11,TRUE,101,1,2390.3186,110,EAT                                    DON'T EAT,2389.3662,2383.3276,2295.8,left,1,left,left,eat,eat,avoid,neg,avoid-neg,1,1,952.4000000003725
sub-110,103,0,FALSE,left,avoid,neg,fungus15_crop.jpg,2,11,TRUE,102,2,2392.1018,110,EAT                                    DON'T EAT,2391.3845,2383.3276,2295.8,left,2,right,right,not_eat,not_eat,avoid,neg,avoid-neg,1,1,717.2999999998137
sub-110,104,0,FALSE,left,avoid,neg,fungus27_crop.jpg,2,11,TRUE,103,2,2393.9714,110,EAT                                    DON'T EAT,2393.4023,2383.3276,2295.8,left,2,right,right,not_eat,not_eat,avoid,neg,avoid-neg,1,1,569.0999999996275
sub-110,105,0,TRUE,left,approach,pos,cake33_crop.jpg,2,11,TRUE,104,1,2396.1387,110,EAT                                    DON'T EAT,2395.4214,2383.3276,2295.8,left,1,left,left,eat,eat,avoid,neg,avoid-neg,1,1,717.2999999998137
sub-110,106,0,FALSE,left,avoid,neg,fungus22_crop.jpg,2,11,TRUE,105,2,2398.0845,110,EAT                                    DON'T EAT,2397.4392,2383.3276,2295.8,left,2,right,right,not_eat,not_eat,avoid,neg,avoid-neg,1,1,645.3000000002794
sub-110,107,0,FALSE,left,avoid,neg,fungus31_crop.jpg,2,11,TRUE,106,2,2400.249,110,EAT                                    DON'T EAT,2399.458,2383.3276,2295.8,left,2,right,right,not_eat,not_eat,avoid,neg,avoid-neg,1,1,791
sub-110,108,0,FALSE,left,avoid,neg,fungus10_crop.jpg,2,11,TRUE,107,2,2402.0286,110,EAT                                    DON'T EAT,2401.476,2383.3276,2295.8,left,2,right,right,not_eat,not_eat,avoid,neg,avoid-neg,1,1,552.6000000000931
sub-110,109,0,FALSE,left,avoid,neg,fungus23_crop.jpg,2,11,TRUE,108,2,2404.1392,110,EAT                                    DON'T EAT,2403.4946,2383.3276,2295.8,left,2,right,right,not_eat,not_eat,avoid,neg,avoid-neg,1,1,644.6000000000931
sub-110,110,0,FALSE,left,avoid,neg,fungus29_crop.jpg,2,11,TRUE,109,2,2406.117,110,EAT                                    DON'T EAT,2405.513,2383.3276,2295.8,left,2,right,right,not_eat,not_eat,avoid,neg,avoid-neg,1,1,604
sub-110,111,0,FALSE,right,approach,neg,insect7_crop.jpg,2,12,TRUE,110,1,2422.6663,110,EAT                                    DON'T EAT,2421.8933,2417.8728,2295.8,left,1,left,left,eat,eat,approach,neg,approach-neg,1,1,772.9999999995343
sub-110,112,0,FALSE,right,approach,neg,insect3_crop.jpg,2,12,TRUE,111,1,2424.3997,110,EAT                                    DON'T EAT,2423.9114,2417.8728,2295.8,left,1,left,left,eat,eat,approach,neg,approach-neg,1,1,488.29999999981374
sub-110,113,0,FALSE,right,approach,neg,insect8_crop.jpg,2,12,TRUE,112,1,2426.407,110,EAT                                    DON'T EAT,2425.9297,2417.8728,2295.8,left,1,left,left,eat,eat,approach,neg,approach-neg,1,1,477.29999999981374
sub-110,114,0,FALSE,right,approach,neg,insect12_crop.jpg,2,12,TRUE,113,1,2428.451,110,EAT                                    DON'T EAT,2427.9478,2417.8728,2295.8,left,1,left,left,eat,eat,approach,neg,approach-neg,1,1,503.20000000018626
sub-110,115,0,FALSE,right,approach,neg,insect18_crop.jpg,2,12,TRUE,114,1,2430.3884,110,EAT                                    DON'T EAT,2429.9663,2417.8728,2295.8,left,1,left,left,eat,eat,approach,neg,approach-neg,1,1,422.10000000009313
sub-110,116,0,TRUE,right,avoid,neg,fungus14_crop.jpg,2,12,TRUE,115,2,2432.7651,110,EAT                                    DON'T EAT,2431.9846,2417.8728,2295.8,left,2,right,right,not_eat,not_eat,approach,neg,approach-neg,1,1,780.5000000004657
sub-110,117,0,FALSE,right,approach,neg,insect32_crop.jpg,2,12,TRUE,116,1,2434.6406,110,EAT                                    DON'T EAT,2434.0027,2417.8728,2295.8,left,1,left,left,eat,eat,approach,neg,approach-neg,1,1,637.8999999999069
sub-110,118,0,TRUE,right,avoid,pos,meat29_crop.jpg,2,12,TRUE,117,2,2436.706,110,EAT                                    DON'T EAT,2436.0215,2417.8728,2295.8,left,2,right,right,not_eat,not_eat,approach,neg,approach-neg,1,1,684.5
sub-110,119,0,FALSE,right,approach,neg,insect39_crop.jpg,2,12,TRUE,118,1,2438.5884,110,EAT                                    DON'T EAT,2438.0396,2417.8728,2295.8,left,1,left,left,eat,eat,approach,neg,approach-neg,1,1,548.7999999998137
sub-110,120,0,FALSE,right,approach,neg,insect31_crop.jpg,2,12,TRUE,119,1,2440.6074,110,EAT                                    DON'T EAT,2440.058,2417.8728,2295.8,left,1,left,left,eat,eat,approach,neg,approach-neg,1,1,549.3999999999069
sub-110,121,0,FALSE,right,avoid,neg,fungus27_crop.jpg,2,13,TRUE,120,2,2460.1216,110,EAT                                    DON'T EAT,2459.3074,2455.287,2295.8,left,2,right,right,not_eat,not_eat,avoid,neg,avoid-neg,1,1,814.1999999997206
sub-110,122,0,FALSE,right,avoid,neg,fungus26_crop.jpg,2,13,TRUE,121,2,2462.0005,110,EAT                                    DON'T EAT,2461.3257,2455.287,2295.8,left,2,right,right,not_eat,not_eat,avoid,neg,avoid-neg,1,1,674.8000000002794
sub-110,123,0,FALSE,right,avoid,neg,fungus9_crop.jpg,2,13,TRUE,122,2,2463.8706,110,EAT                                    DON'T EAT,2463.3438,2455.287,2295.8,left,2,right,right,not_eat,not_eat,avoid,neg,avoid-neg,1,1,526.7999999998137
sub-110,124,0,FALSE,right,avoid,neg,fungus31_crop.jpg,2,13,TRUE,123,2,2465.9988,110,EAT                                    DON'T EAT,2465.3625,2455.287,2295.8,left,2,right,right,not_eat,not_eat,avoid,neg,avoid-neg,1,1,636.2999999998137
sub-110,125,0,FALSE,right,avoid,neg,fungus10_crop.jpg,2,13,TRUE,124,2,2467.878,110,EAT                                    DON'T EAT,2467.3809,2455.287,2295.8,left,2,right,right,not_eat,not_eat,avoid,neg,avoid-neg,1,1,497.10000000009313
sub-110,126,0,TRUE,right,approach,pos,cake2_crop.jpg,2,13,TRUE,125,1,2470.0642,110,EAT                                    DON'T EAT,2469.3992,2455.287,2295.8,left,1,left,left,eat,eat,avoid,neg,avoid-neg,1,1,665
sub-110,127,0,FALSE,right,avoid,neg,fungus8_crop.jpg,2,13,TRUE,126,2,2472.0698,110,EAT                                    DON'T EAT,2471.4172,2455.287,2295.8,left,2,right,right,not_eat,not_eat,avoid,neg,avoid-neg,1,1,652.6000000005588
sub-110,128,0,FALSE,right,avoid,neg,fungus32_crop.jpg,2,13,TRUE,127,2,2473.9766,110,EAT                                    DON'T EAT,2473.4358,2455.287,2295.8,left,2,right,right,not_eat,not_eat,avoid,neg,avoid-neg,1,1,540.7999999998137
sub-110,129,0,FALSE,right,avoid,neg,fungus23_crop.jpg,2,13,TRUE,128,2,2475.9832,110,EAT                                    DON'T EAT,2475.4539,2455.287,2295.8,left,2,right,right,not_eat,not_eat,avoid,neg,avoid-neg,1,1,529.3000000002794
sub-110,130,0,TRUE,right,approach,neg,insect14_crop.jpg,2,13,TRUE,129,1,2478.1409,110,EAT                                    DON'T EAT,2477.4722,2455.287,2295.8,left,1,left,left,eat,eat,avoid,neg,avoid-neg,1,1,668.6999999997206
sub-110,131,2,FALSE,right,avoid,pos,meat6_crop.jpg,2,14,TRUE,130,2,2494.938,110,EAT                                    DON'T EAT,2493.7192,2489.6992,2295.8,left,2,right,right,not_eat,not_eat,avoid,pos,avoid-pos,1,1,1218.7999999998137
sub-110,132,2,FALSE,right,avoid,pos,meat23_crop.jpg,2,14,TRUE,131,2,2496.471,110,EAT                                    DON'T EAT,2495.7378,2489.6992,2295.8,left,2,right,right,not_eat,not_eat,avoid,pos,avoid-pos,1,1,733.2000000001863
sub-110,133,2,FALSE,right,avoid,pos,meat31_crop.jpg,2,14,TRUE,132,2,2498.2822,110,EAT                                    DON'T EAT,2497.7559,2489.6992,2295.8,left,2,right,right,not_eat,not_eat,avoid,pos,avoid-pos,1,1,526.3000000002794
sub-110,134,2,FALSE,right,avoid,pos,meat3_crop.jpg,2,14,TRUE,133,2,2500.408,110,EAT                                    DON'T EAT,2499.7742,2489.6992,2295.8,left,2,right,right,not_eat,not_eat,avoid,pos,avoid-pos,1,1,633.8000000002794
sub-110,135,2,TRUE,right,approach,neg,insect13_crop.jpg,2,14,TRUE,134,1,2502.4358,110,EAT                                    DON'T EAT,2501.7927,2489.6992,2295.8,left,1,left,left,eat,eat,avoid,pos,avoid-pos,1,1,643.1000000000931
sub-110,136,2,TRUE,right,approach,pos,cake14_crop.jpg,2,14,TRUE,135,1,2504.362,110,EAT                                    DON'T EAT,2503.811,2489.6992,2295.8,left,1,left,left,eat,eat,avoid,pos,avoid-pos,1,1,551
sub-110,137,2,FALSE,right,avoid,pos,meat17_crop.jpg,2,14,TRUE,136,2,2506.4868,110,EAT                                    DON'T EAT,2505.8293,2489.6992,2295.8,left,2,right,right,not_eat,not_eat,avoid,pos,avoid-pos,1,1,657.5000000004657
sub-110,138,2,FALSE,right,avoid,pos,meat24_crop.jpg,2,14,TRUE,137,2,2508.4392,110,EAT                                    DON'T EAT,2507.8477,2489.6992,2295.8,left,2,right,right,not_eat,not_eat,avoid,pos,avoid-pos,1,1,591.5
sub-110,139,2,FALSE,right,avoid,pos,meat37_crop.jpg,2,14,TRUE,138,2,2510.412,110,EAT                                    DON'T EAT,2509.866,2489.6992,2295.8,left,2,right,right,not_eat,not_eat,avoid,pos,avoid-pos,1,1,546
sub-110,140,2,FALSE,right,avoid,pos,meat28_crop.jpg,2,14,TRUE,139,2,2512.3823,110,EAT                                    DON'T EAT,2511.8845,2489.6992,2295.8,left,2,right,right,not_eat,not_eat,avoid,pos,avoid-pos,1,1,497.8000000002794
sub-110,141,0,TRUE,right,avoid,pos,meat8_crop.jpg,2,15,TRUE,140,2,2531.2346,110,EAT                                    DON'T EAT,2530.4832,2526.4626,2295.8,left,2,right,right,not_eat,not_eat,approach,pos,approach-pos,1,1,751.3999999994412
sub-110,142,0,FALSE,right,approach,pos,cake8_crop.jpg,2,15,TRUE,141,1,2533.2498,110,EAT                                    DON'T EAT,2532.5015,2526.4626,2295.8,left,1,left,left,eat,eat,approach,pos,approach-pos,1,1,748.3000000002794
sub-110,143,0,FALSE,right,approach,pos,cake35_crop.jpg,2,15,TRUE,142,1,2535.2185,110,EAT                                    DON'T EAT,2534.5198,2526.4626,2295.8,left,1,left,left,eat,eat,approach,pos,approach-pos,1,1,698.7000000001863
sub-110,144,0,FALSE,right,approach,pos,cake23_crop.jpg,2,15,TRUE,143,1,2537.0618,110,EAT                                    DON'T EAT,2536.5378,2526.4626,2295.8,left,1,left,left,eat,eat,approach,pos,approach-pos,1,1,523.9999999995343
sub-110,145,0,FALSE,right,approach,pos,cake31_crop.jpg,2,15,TRUE,144,1,2539.0962,110,EAT                                    DON'T EAT,2538.5562,2526.4626,2295.8,left,1,left,left,eat,eat,approach,pos,approach-pos,1,1,540
sub-110,146,0,FALSE,right,approach,pos,cake32_crop.jpg,2,15,TRUE,145,1,2541.4521,110,EAT                                    DON'T EAT,2540.575,2526.4626,2295.8,left,1,left,left,eat,eat,approach,pos,approach-pos,1,1,877.1000000000931
sub-110,147,0,TRUE,right,avoid,neg,fungus39_crop.jpg,2,15,TRUE,146,2,2543.3123,110,EAT                                    DON'T EAT,2542.5933,2526.4626,2295.8,left,2,right,right,not_eat,not_eat,approach,pos,approach-pos,1,1,719.0000000004657
sub-110,148,0,FALSE,right,approach,pos,cake39_crop.jpg,2,15,TRUE,147,1,2545.2053,110,EAT                                    DON'T EAT,2544.6116,2526.4626,2295.8,left,1,left,left,eat,eat,approach,pos,approach-pos,1,1,593.7000000001863
sub-110,149,0,FALSE,right,approach,pos,cake7_crop.jpg,2,15,TRUE,148,1,2547.3503,110,EAT                                    DON'T EAT,2546.6294,2526.4626,2295.8,left,1,left,left,eat,eat,approach,pos,approach-pos,1,1,720.9000000003725
sub-110,150,0,FALSE,right,approach,pos,cake6_crop.jpg,2,15,TRUE,149,1,2549.2395,110,EAT                                    DON'T EAT,2548.6482,2526.4626,2295.8,left,1,left,left,eat,eat,approach,pos,approach-pos,1,1,591.2999999998137
sub-110,151,3,FALSE,right,avoid,neg,fungus36_crop.jpg,2,16,TRUE,150,2,2566.2722,110,EAT                                    DON'T EAT,2565.5122,2561.4922,2295.8,left,2,right,right,not_eat,not_eat,avoid,neg,avoid-neg,1,1,759.9999999995343
sub-110,152,3,FALSE,right,avoid,neg,fungus18_crop.jpg,2,16,TRUE,151,2,2568.1233,110,EAT                                    DON'T EAT,2567.5308,2561.4922,2295.8,left,2,right,right,not_eat,not_eat,avoid,neg,avoid-neg,1,1,592.5000000004657
sub-110,153,3,FALSE,right,avoid,neg,fungus6_crop.jpg,2,16,TRUE,152,2,2570.0466,110,EAT                                    DON'T EAT,2569.5488,2561.4922,2295.8,left,2,right,right,not_eat,not_eat,avoid,neg,avoid-neg,1,1,497.8000000002794
sub-110,154,3,FALSE,right,avoid,neg,fungus3_crop.jpg,2,16,TRUE,153,2,2572.2554,110,EAT                                    DON'T EAT,2571.5671,2561.4922,2295.8,left,2,right,right,not_eat,not_eat,avoid,neg,avoid-neg,1,1,688.2999999998137
sub-110,155,3,TRUE,right,approach,pos,cake34_crop.jpg,2,16,TRUE,154,1,2574.2637,110,EAT                                    DON'T EAT,2573.5854,2561.4922,2295.8,left,1,left,left,eat,eat,avoid,neg,avoid-neg,1,1,678.3000000002794
sub-110,156,3,FALSE,right,avoid,neg,fungus19_crop.jpg,2,16,TRUE,155,2,2576.1982,110,EAT                                    DON'T EAT,2575.604,2561.4922,2295.8,left,2,right,right,not_eat,not_eat,avoid,neg,avoid-neg,1,1,594.1999999997206
sub-110,157,3,FALSE,right,avoid,neg,fungus4_crop.jpg,2,16,TRUE,156,2,2578.2454,110,EAT                                    DON'T EAT,2577.622,2561.4922,2295.8,left,2,right,right,not_eat,not_eat,avoid,neg,avoid-neg,1,1,623.3999999999069
sub-110,158,3,FALSE,right,avoid,neg,fungus37_crop.jpg,2,16,TRUE,157,2,2580.197,110,EAT                                    DON'T EAT,2579.6406,2561.4922,2295.8,left,2,right,right,not_eat,not_eat,avoid,neg,avoid-neg,1,1,556.3999999999069
sub-110,159,3,FALSE,right,avoid,neg,fungus11_crop.jpg,2,16,TRUE,158,2,2582.22,110,EAT                                    DON'T EAT,2581.6587,2561.4922,2295.8,left,2,right,right,not_eat,not_eat,avoid,neg,avoid-neg,1,1,561.2999999998137
sub-110,160,3,TRUE,right,approach,neg,insect36_crop.jpg,2,16,TRUE,159,1,2584.4692,110,EAT                                    DON'T EAT,2583.6772,2561.4922,2295.8,left,1,left,left,eat,eat,avoid,neg,avoid-neg,1,1,792
sub-110,161,0,FALSE,left,approach,neg,insect33_crop.jpg,3,17,TRUE,160,1,2676.1929,110,EAT                                    DON'T EAT,2675.4363,2671.4165,2659.3298,right,1,left,left,eat,eat,approach,neg,approach-neg,1,1,756.6000000000931
sub-110,162,0,FALSE,left,approach,neg,insect32_crop.jpg,3,17,TRUE,161,1,2677.8933,110,EAT                                    DON'T EAT,2677.4546,2671.4165,2659.3298,right,1,left,left,eat,eat,approach,neg,approach-neg,1,1,438.70000000018626
sub-110,163,0,FALSE,left,approach,neg,insect25_crop.jpg,3,17,TRUE,162,1,2679.9558,110,EAT                                    DON'T EAT,2679.473,2671.4165,2659.3298,right,1,left,left,eat,eat,approach,neg,approach-neg,1,1,482.8000000002794
sub-110,164,0,FALSE,left,approach,neg,insect4_crop.jpg,3,17,TRUE,163,1,2681.9846,110,EAT                                    DON'T EAT,2681.4912,2671.4165,2659.3298,right,1,left,left,eat,eat,approach,neg,approach-neg,1,1,493.39999999990687
sub-110,165,0,FALSE,left,approach,neg,insect8_crop.jpg,3,17,TRUE,164,1,2683.943,110,EAT                                    DON'T EAT,2683.5098,2671.4165,2659.3298,right,1,left,left,eat,eat,approach,neg,approach-neg,1,1,433.20000000018626
sub-110,166,0,FALSE,left,approach,neg,insect40_crop.jpg,3,17,TRUE,165,1,2686.088,110,EAT                                    DON'T EAT,2685.5283,2671.4165,2659.3298,right,1,left,left,eat,eat,approach,neg,approach-neg,1,1,559.7000000001863
sub-110,167,0,TRUE,left,avoid,neg,fungus8_crop.jpg,3,17,TRUE,166,2,2688.4766,110,EAT                                    DON'T EAT,2687.5466,2671.4165,2659.3298,right,2,right,right,not_eat,not_eat,approach,neg,approach-neg,1,1,930
sub-110,168,0,FALSE,left,approach,neg,insect26_crop.jpg,3,17,TRUE,167,1,2690.178,110,EAT                                    DON'T EAT,2689.565,2671.4165,2659.3298,right,1,left,left,eat,eat,approach,neg,approach-neg,1,1,613
sub-110,169,0,FALSE,left,approach,neg,insect30_crop.jpg,3,17,TRUE,168,1,2692.122,110,EAT                                    DON'T EAT,2691.5835,2671.4165,2659.3298,right,1,left,left,eat,eat,approach,neg,approach-neg,1,1,538.5
sub-110,170,0,TRUE,left,avoid,pos,meat22_crop.jpg,3,17,TRUE,169,2,2694.4915,110,EAT                                    DON'T EAT,2693.6018,2671.4165,2659.3298,right,2,right,right,not_eat,not_eat,approach,neg,approach-neg,1,1,889.7000000001863
sub-110,171,3,FALSE,right,approach,pos,cake24_crop.jpg,3,18,TRUE,170,1,2712.7646,110,EAT                                    DON'T EAT,2712.0671,2708.0469,2659.3298,right,1,left,left,eat,eat,approach,pos,approach-pos,1,1,697.5
sub-110,172,3,FALSE,right,approach,pos,cake18_crop.jpg,3,18,TRUE,171,1,2714.5938,110,EAT                                    DON'T EAT,2714.085,2708.0469,2659.3298,right,1,left,left,eat,eat,approach,pos,approach-pos,1,1,508.8000000002794
sub-110,173,3,TRUE,right,avoid,pos,meat1_crop.jpg,3,18,TRUE,172,2,2717.2983,110,EAT                                    DON'T EAT,2716.1035,2708.0469,2659.3298,right,2,right,right,not_eat,not_eat,approach,pos,approach-pos,1,1,1194.7999999998137
sub-110,174,3,TRUE,right,avoid,neg,fungus28_crop.jpg,3,18,TRUE,173,2,2718.8918,110,EAT                                    DON'T EAT,2718.122,2708.0469,2659.3298,right,2,right,right,not_eat,not_eat,approach,pos,approach-pos,1,1,769.7999999998137
sub-110,175,3,FALSE,right,approach,pos,cake25_crop.jpg,3,18,TRUE,174,1,2720.7656,110,EAT                                    DON'T EAT,2720.1404000000002,2708.0469,2659.3298,right,1,left,left,eat,eat,approach,pos,approach-pos,1,1,625.1999999997206
sub-110,176,3,FALSE,right,approach,pos,cake27_crop.jpg,3,18,TRUE,175,1,2722.9863,110,EAT                                    DON'T EAT,2722.1587,2708.0469,2659.3298,right,1,left,left,eat,eat,approach,pos,approach-pos,1,1,827.5999999996275
sub-110,177,3,FALSE,right,approach,pos,cake3_crop.jpg,3,18,TRUE,176,1,2724.7708,110,EAT                                    DON'T EAT,2724.177,2708.0469,2659.3298,right,1,left,left,eat,eat,approach,pos,approach-pos,1,1,593.7999999998137
sub-110,178,3,FALSE,right,approach,pos,cake15_crop.jpg,3,18,TRUE,177,1,2726.7393,110,EAT                                    DON'T EAT,2726.1956,2708.0469,2659.3298,right,1,left,left,eat,eat,approach,pos,approach-pos,1,1,543.7000000001863
sub-110,179,3,FALSE,right,approach,pos,cake4_crop.jpg,3,18,TRUE,178,1,2728.802,110,EAT                                    DON'T EAT,2728.2139,2708.0469,2659.3298,right,1,left,left,eat,eat,approach,pos,approach-pos,1,1,588.0999999996275
sub-110,180,3,FALSE,right,approach,pos,cake21_crop.jpg,3,18,TRUE,179,1,2730.8582,110,EAT                                    DON'T EAT,2730.2322,2708.0469,2659.3298,right,1,left,left,eat,eat,approach,pos,approach-pos,1,1,626.0000000004657
sub-110,181,1,FALSE,left,approach,pos,cake38_crop.jpg,3,19,TRUE,180,1,2748.7568,110,EAT                                    DON'T EAT,2747.9636,2743.943,2659.3298,right,1,left,left,eat,eat,approach,pos,approach-pos,1,1,793.2000000001863
sub-110,182,1,TRUE,left,avoid,neg,fungus39_crop.jpg,3,19,TRUE,181,2,2750.6467,110,EAT                                    DON'T EAT,2749.982,2743.943,2659.3298,right,2,right,right,not_eat,not_eat,approach,pos,approach-pos,1,1,664.6999999997206
sub-110,183,1,FALSE,left,approach,pos,cake17_crop.jpg,3,19,TRUE,182,1,2752.586,110,EAT                                    DON'T EAT,2752.0002,2743.943,2659.3298,right,1,left,left,eat,eat,approach,pos,approach-pos,1,1,585.8000000002794
sub-110,184,1,FALSE,left,approach,pos,cake28_crop.jpg,3,19,TRUE,183,1,2754.5898,110,EAT                                    DON'T EAT,2754.0186,2743.943,2659.3298,right,1,left,left,eat,eat,approach,pos,approach-pos,1,1,571.2000000001863
sub-110,185,1,FALSE,left,approach,pos,cake16_crop.jpg,3,19,TRUE,184,1,2756.5476,110,EAT                                    DON'T EAT,2756.0369,2743.943,2659.3298,right,1,left,left,eat,eat,approach,pos,approach-pos,1,1,510.70000000018626
sub-110,186,1,FALSE,left,approach,pos,cake7_crop.jpg,3,19,TRUE,185,1,2758.6345,110,EAT                                    DON'T EAT,2758.0552,2743.943,2659.3298,right,1,left,left,eat,eat,approach,pos,approach-pos,1,1,579.3000000002794
sub-110,187,1,FALSE,left,approach,pos,cake2_crop.jpg,3,19,TRUE,186,1,2760.581,110,EAT                                    DON'T EAT,2760.0735,2743.943,2659.3298,right,1,left,left,eat,eat,approach,pos,approach-pos,1,1,507.5
sub-110,188,1,FALSE,left,approach,pos,cake35_crop.jpg,3,19,TRUE,187,1,2762.6611,110,EAT                                    DON'T EAT,2762.0918,2743.943,2659.3298,right,1,left,left,eat,eat,approach,pos,approach-pos,1,1,569.2999999993481
sub-110,189,1,TRUE,left,avoid,pos,meat32_crop.jpg,3,19,TRUE,188,2,2764.9265,110,EAT                                    DON'T EAT,2764.1104,2743.943,2659.3298,right,2,right,right,not_eat,not_eat,approach,pos,approach-pos,1,1,816.1000000000931
sub-110,190,1,FALSE,left,approach,pos,cake31_crop.jpg,3,19,TRUE,189,1,2766.748,110,EAT                                    DON'T EAT,2766.1287,2743.943,2659.3298,right,1,left,left,eat,eat,approach,pos,approach-pos,1,1,619.2999999998137
sub-110,191,2,FALSE,left,approach,neg,insect2_crop.jpg,3,20,TRUE,190,1,2786.6887,110,EAT                                    DON'T EAT,2786.0278,2782.0083,2659.3298,right,1,left,left,eat,eat,approach,neg,approach-neg,1,1,660.9000000003725
sub-110,192,2,FALSE,left,approach,neg,insect9_crop.jpg,3,20,TRUE,191,1,2788.5493,110,EAT                                    DON'T EAT,2788.0464,2782.0083,2659.3298,right,1,left,left,eat,eat,approach,neg,approach-neg,1,1,502.89999999990687
sub-110,193,2,FALSE,left,approach,neg,insect38_crop.jpg,3,20,TRUE,192,1,2790.5078,110,EAT                                    DON'T EAT,2790.065,2782.0083,2659.3298,right,1,left,left,eat,eat,approach,neg,approach-neg,1,1,442.79999999981374
sub-110,194,2,TRUE,left,avoid,pos,meat1_crop.jpg,3,20,TRUE,193,2,2792.8538,110,EAT                                    DON'T EAT,2792.0835,2782.0083,2659.3298,right,2,right,right,not_eat,not_eat,approach,neg,approach-neg,1,1,770.2999999998137
sub-110,195,2,FALSE,left,approach,neg,insect37_crop.jpg,3,20,TRUE,194,1,2794.7974,110,EAT                                    DON'T EAT,2794.102,2782.0083,2659.3298,right,1,left,left,eat,eat,approach,neg,approach-neg,1,1,695.3999999999069
sub-110,196,2,FALSE,left,approach,neg,insect29_crop.jpg,3,20,TRUE,195,1,2796.6602,110,EAT                                    DON'T EAT,2796.12,2782.0083,2659.3298,right,1,left,left,eat,eat,approach,neg,approach-neg,1,1,540.1999999997206
sub-110,197,2,FALSE,left,approach,neg,insect34_crop.jpg,3,20,TRUE,196,1,2798.8555,110,EAT                                    DON'T EAT,2798.1384,2782.0083,2659.3298,right,1,left,left,eat,eat,approach,neg,approach-neg,1,1,717.1000000000931
sub-110,198,2,FALSE,left,approach,neg,insect39_crop.jpg,3,20,TRUE,197,1,2800.7283,110,EAT                                    DON'T EAT,2800.1567,2782.0083,2659.3298,right,1,left,left,eat,eat,approach,neg,approach-neg,1,1,571.6000000000931
sub-110,199,2,FALSE,left,approach,neg,insect18_crop.jpg,3,20,TRUE,198,1,2802.7036,110,EAT                                    DON'T EAT,2802.1748,2782.0083,2659.3298,right,1,left,left,eat,eat,approach,neg,approach-neg,1,1,528.7999999998137
sub-110,200,2,TRUE,left,avoid,neg,fungus2_crop.jpg,3,20,TRUE,199,2,2804.8818,110,EAT                                    DON'T EAT,2804.1936,2782.0083,2659.3298,right,2,right,right,not_eat,not_eat,approach,neg,approach-neg,1,1,688.2000000001863
sub-110,201,0,FALSE,right,avoid,pos,meat2_crop.jpg,3,21,TRUE,200,2,2823.4058,110,EAT                                    DON'T EAT,2822.6755,2818.6553,2659.3298,right,2,right,right,not_eat,not_eat,avoid,pos,avoid-pos,1,1,730.2999999998137
sub-110,202,0,FALSE,right,avoid,pos,meat11_crop.jpg,3,21,TRUE,201,2,2825.4338,110,EAT                                    DON'T EAT,2824.6938,2818.6553,2659.3298,right,2,right,right,not_eat,not_eat,avoid,pos,avoid-pos,1,1,740
sub-110,203,0,FALSE,right,avoid,pos,meat21_crop.jpg,3,21,TRUE,202,2,2827.393,110,EAT                                    DON'T EAT,2826.7117,2818.6553,2659.3298,right,2,right,right,not_eat,not_eat,avoid,pos,avoid-pos,1,1,681.3000000002794
sub-110,204,0,TRUE,right,approach,neg,insect19_crop.jpg,3,21,TRUE,203,1,2829.429,110,EAT                                    DON'T EAT,2828.7305,2818.6553,2659.3298,right,1,left,left,eat,eat,avoid,pos,avoid-pos,1,1,698.5
sub-110,205,0,FALSE,right,avoid,pos,meat25_crop.jpg,3,21,TRUE,204,2,2831.562,110,EAT                                    DON'T EAT,2830.749,2818.6553,2659.3298,right,2,right,right,not_eat,not_eat,avoid,pos,avoid-pos,1,1,813
sub-110,206,0,FALSE,right,avoid,pos,meat9_crop.jpg,3,21,TRUE,205,2,2833.4119,110,EAT                                    DON'T EAT,2832.767,2818.6553,2659.3298,right,2,right,right,not_eat,not_eat,avoid,pos,avoid-pos,1,1,644.8999999999069
sub-110,207,0,FALSE,right,avoid,pos,meat36_crop.jpg,3,21,TRUE,206,2,2835.375,110,EAT                                    DON'T EAT,2834.7854,2818.6553,2659.3298,right,2,right,right,not_eat,not_eat,avoid,pos,avoid-pos,1,1,589.5999999996275
sub-110,208,0,FALSE,right,avoid,pos,meat5_crop.jpg,3,21,TRUE,207,2,2837.4314,110,EAT                                    DON'T EAT,2836.8032,2818.6553,2659.3298,right,2,right,right,not_eat,not_eat,avoid,pos,avoid-pos,1,1,628.2000000001863
sub-110,209,0,TRUE,right,approach,pos,cake38_crop.jpg,3,21,TRUE,208,1,2839.489,110,EAT                                    DON'T EAT,2838.822,2818.6553,2659.3298,right,1,left,left,eat,eat,avoid,pos,avoid-pos,1,1,667
sub-110,210,0,FALSE,right,avoid,pos,meat35_crop.jpg,3,21,TRUE,209,2,2841.5276,110,EAT                                    DON'T EAT,2840.8406,2818.6553,2659.3298,right,2,right,right,not_eat,not_eat,avoid,pos,avoid-pos,1,1,687
sub-110,211,1,FALSE,left,avoid,neg,fungus34_crop.jpg,3,22,TRUE,210,2,2858.6672,110,EAT                                    DON'T EAT,2857.8875,2853.868,2659.3298,right,2,right,right,not_eat,not_eat,avoid,neg,avoid-neg,1,1,779.6999999997206
sub-110,212,1,FALSE,left,avoid,neg,fungus3_crop.jpg,3,22,TRUE,211,2,2860.559,110,EAT                                    DON'T EAT,2859.9062,2853.868,2659.3298,right,2,right,right,not_eat,not_eat,avoid,neg,avoid-neg,1,1,652.8000000002794
sub-110,213,1,FALSE,left,avoid,neg,fungus28_crop.jpg,3,22,TRUE,212,2,2862.4204,110,EAT                                    DON'T EAT,2861.9248,2853.868,2659.3298,right,2,right,right,not_eat,not_eat,avoid,neg,avoid-neg,1,1,495.60000000009313
sub-110,214,1,FALSE,left,avoid,neg,fungus32_crop.jpg,3,22,TRUE,213,2,2864.4817,110,EAT                                    DON'T EAT,2863.943,2853.868,2659.3298,right,2,right,right,not_eat,not_eat,avoid,neg,avoid-neg,1,1,538.6999999997206
sub-110,215,1,TRUE,left,approach,pos,cake25_crop.jpg,3,22,TRUE,214,1,2866.6187,110,EAT                                    DON'T EAT,2865.9614,2853.868,2659.3298,right,1,left,left,eat,eat,avoid,neg,avoid-neg,1,1,657.2999999998137
sub-110,216,1,TRUE,left,approach,neg,insect24_crop.jpg,3,22,TRUE,215,1,2868.6768,110,EAT                                    DON'T EAT,2867.9797,2853.868,2659.3298,right,1,left,left,eat,eat,avoid,neg,avoid-neg,1,1,697.1000000005588
sub-110,217,1,FALSE,left,avoid,neg,fungus35_crop.jpg,3,22,TRUE,216,2,2870.6858,110,EAT                                    DON'T EAT,2869.998,2853.868,2659.3298,right,2,right,right,not_eat,not_eat,avoid,neg,avoid-neg,1,1,687.8000000002794
sub-110,218,1,FALSE,left,avoid,neg,fungus13_crop.jpg,3,22,TRUE,217,2,2872.7336,110,EAT                                    DON'T EAT,2872.016,2853.868,2659.3298,right,2,right,right,not_eat,not_eat,avoid,neg,avoid-neg,1,1,717.6000000000931
sub-110,219,1,FALSE,left,avoid,neg,fungus11_crop.jpg,3,22,TRUE,218,2,2874.6392,110,EAT                                    DON'T EAT,2874.035,2853.868,2659.3298,right,2,right,right,not_eat,not_eat,avoid,neg,avoid-neg,1,1,604.2000000001863
sub-110,220,1,FALSE,left,avoid,neg,fungus4_crop.jpg,3,22,TRUE,219,2,2876.625,110,EAT                                    DON'T EAT,2876.0532,2853.868,2659.3298,right,2,right,right,not_eat,not_eat,avoid,neg,avoid-neg,1,1,571.8000000002794
sub-110,221,3,FALSE,left,avoid,neg,fungus16_crop.jpg,3,23,TRUE,220,2,2894.9026,110,EAT                                    DON'T EAT,2894.1848,2890.1648,2659.3298,right,2,right,right,not_eat,not_eat,avoid,neg,avoid-neg,1,1,717.8000000002794
sub-110,222,3,TRUE,left,approach,pos,cake13_crop.jpg,3,23,TRUE,221,1,2896.8086,110,EAT                                    DON'T EAT,2896.2031,2890.1648,2659.3298,right,1,left,left,eat,eat,avoid,neg,avoid-neg,1,1,605.4999999995343
sub-110,223,3,FALSE,left,avoid,neg,fungus26_crop.jpg,3,23,TRUE,222,2,2898.9404,110,EAT                                    DON'T EAT,2898.2214,2890.1648,2659.3298,right,2,right,right,not_eat,not_eat,avoid,neg,avoid-neg,1,1,719
sub-110,224,3,FALSE,left,avoid,neg,fungus19_crop.jpg,3,23,TRUE,223,2,2900.852,110,EAT                                    DON'T EAT,2900.2397,2890.1648,2659.3298,right,2,right,right,not_eat,not_eat,avoid,neg,avoid-neg,1,1,612.2999999998137
sub-110,225,3,FALSE,left,avoid,neg,fungus40_crop.jpg,3,23,TRUE,224,2,2902.798,110,EAT                                    DON'T EAT,2902.258,2890.1648,2659.3298,right,2,right,right,not_eat,not_eat,avoid,neg,avoid-neg,1,1,540
sub-110,226,3,FALSE,left,avoid,neg,fungus9_crop.jpg,3,23,TRUE,225,2,2904.7498,110,EAT                                    DON'T EAT,2904.2766,2890.1648,2659.3298,right,2,right,right,not_eat,not_eat,avoid,neg,avoid-neg,1,1,473.20000000018626
sub-110,227,3,FALSE,left,avoid,neg,fungus25_crop.jpg,3,23,TRUE,226,2,2906.847,110,EAT                                    DON'T EAT,2906.2947,2890.1648,2659.3298,right,2,right,right,not_eat,not_eat,avoid,neg,avoid-neg,1,1,552.3000000002794
sub-110,228,3,FALSE,left,avoid,neg,fungus36_crop.jpg,3,23,TRUE,227,2,2908.9465,110,EAT                                    DON'T EAT,2908.3132,2890.1648,2659.3298,right,2,right,right,not_eat,not_eat,avoid,neg,avoid-neg,1,1,633.2999999998137
sub-110,229,3,TRUE,left,approach,neg,insect27_crop.jpg,3,23,TRUE,228,1,2911.023,110,EAT                                    DON'T EAT,2910.3315,2890.1648,2659.3298,right,1,left,left,eat,eat,avoid,neg,avoid-neg,1,1,691.5
sub-110,230,3,FALSE,left,avoid,neg,fungus5_crop.jpg,3,23,TRUE,229,2,2913.582,110,EAT                                    DON'T EAT,2912.3499,2890.1648,2659.3298,right,2,right,right,not_eat,not_eat,avoid,neg,avoid-neg,1,1,1232.0999999996275
sub-110,231,3,FALSE,left,avoid,pos,meat11_crop.jpg,3,24,TRUE,230,2,2931.3904000000002,110,EAT                                    DON'T EAT,2930.5984,2926.5781,2659.3298,right,2,right,right,not_eat,not_eat,avoid,pos,avoid-pos,1,1,792.0000000004657
sub-110,232,3,TRUE,left,approach,pos,cake22_crop.jpg,3,24,TRUE,231,1,2933.252,110,EAT                                    DON'T EAT,2932.6167,2926.5781,2659.3298,right,1,left,left,eat,eat,avoid,pos,avoid-pos,1,1,635.2999999998137
sub-110,233,3,FALSE,left,avoid,pos,meat5_crop.jpg,3,24,TRUE,232,2,2935.1848,110,EAT                                    DON'T EAT,2934.6348,2926.5781,2659.3298,right,2,right,right,not_eat,not_eat,avoid,pos,avoid-pos,1,1,550
sub-110,234,3,FALSE,left,avoid,pos,meat28_crop.jpg,3,24,TRUE,233,2,2937.2637,110,EAT                                    DON'T EAT,2936.653,2926.5781,2659.3298,right,2,right,right,not_eat,not_eat,avoid,pos,avoid-pos,1,1,610.7000000001863
sub-110,235,3,FALSE,left,avoid,pos,meat35_crop.jpg,3,24,TRUE,234,2,2939.2551,110,EAT                                    DON'T EAT,2938.6716,2926.5781,2659.3298,right,2,right,right,not_eat,not_eat,avoid,pos,avoid-pos,1,1,583.4999999995343
sub-110,236,3,FALSE,left,avoid,pos,meat30_crop.jpg,3,24,TRUE,235,2,2941.3125,110,EAT                                    DON'T EAT,2940.6902,2926.5781,2659.3298,right,2,right,right,not_eat,not_eat,avoid,pos,avoid-pos,1,1,622.2999999998137
sub-110,237,3,TRUE,left,approach,neg,insect7_crop.jpg,3,24,TRUE,236,1,2943.321,110,EAT                                    DON'T EAT,2942.7085,2926.5781,2659.3298,right,1,left,left,eat,eat,avoid,pos,avoid-pos,1,1,612.5
sub-110,238,3,FALSE,left,avoid,pos,meat3_crop.jpg,3,24,TRUE,237,2,2945.3713,110,EAT                                    DON'T EAT,2944.7268,2926.5781,2659.3298,right,2,right,right,not_eat,not_eat,avoid,pos,avoid-pos,1,1,644.5
sub-110,239,3,FALSE,left,avoid,pos,meat36_crop.jpg,3,24,TRUE,238,2,2947.3247,110,EAT                                    DON'T EAT,2946.7446,2926.5781,2659.3298,right,2,right,right,not_eat,not_eat,avoid,pos,avoid-pos,1,1,580.1000000000931
sub-110,240,3,FALSE,left,avoid,pos,meat40_crop.jpg,3,24,TRUE,239,2,2949.1868,110,EAT                                    DON'T EAT,2948.763,2926.5781,2659.3298,right,2,right,right,not_eat,not_eat,avoid,pos,avoid-pos,1,1,423.79999999981374
sub-110,241,1,FALSE,right,approach,neg,insect16_crop.jpg,4,25,TRUE,240,1,3044.5789,110,EAT                                    DON'T EAT,3043.8252,3039.8218,3028.9692,left,1,left,left,eat,eat,approach,neg,approach-neg,1,1,753.6999999997206
sub-110,242,1,TRUE,right,avoid,neg,fungus21_crop.jpg,4,25,TRUE,241,2,3046.5298,110,EAT                                    DON'T EAT,3045.844,3039.8218,3028.9692,left,2,right,right,not_eat,not_eat,approach,neg,approach-neg,1,1,685.7999999998137
sub-110,243,1,FALSE,right,approach,neg,insect5_crop.jpg,4,25,TRUE,242,1,3048.5283,110,EAT                                    DON'T EAT,3047.8623,3039.8218,3028.9692,left,1,left,left,eat,eat,approach,neg,approach-neg,1,1,666
sub-110,244,1,FALSE,right,approach,neg,insect27_crop.jpg,4,25,TRUE,243,1,3050.4905,110,EAT                                    DON'T EAT,3049.8806,3039.8218,3028.9692,left,1,left,left,eat,eat,approach,neg,approach-neg,1,1,609.8999999999069
sub-110,245,1,FALSE,right,approach,neg,insect22_crop.jpg,4,25,TRUE,244,1,3052.4617,110,EAT                                    DON'T EAT,3051.8987,3039.8218,3028.9692,left,1,left,left,eat,eat,approach,neg,approach-neg,1,1,562.9999999995343
sub-110,246,1,TRUE,right,avoid,pos,meat12_crop.jpg,4,25,TRUE,245,2,3054.4758,110,EAT                                    DON'T EAT,3053.9172,3039.8218,3028.9692,left,2,right,right,not_eat,not_eat,approach,neg,approach-neg,1,1,558.6000000005588
sub-110,247,1,FALSE,right,approach,neg,insect4_crop.jpg,4,25,TRUE,246,1,3056.4978,110,EAT                                    DON'T EAT,3055.9358,3039.8218,3028.9692,left,1,left,left,eat,eat,approach,neg,approach-neg,1,1,562
sub-110,248,1,FALSE,right,approach,neg,insect24_crop.jpg,4,25,TRUE,247,1,3058.6846,110,EAT                                    DON'T EAT,3057.9539,3039.8218,3028.9692,left,1,left,left,eat,eat,approach,neg,approach-neg,1,1,730.7000000001863
sub-110,249,1,FALSE,right,approach,neg,insect38_crop.jpg,4,25,TRUE,248,1,3060.6074,110,EAT                                    DON'T EAT,3059.9722,3039.8218,3028.9692,left,1,left,left,eat,eat,approach,neg,approach-neg,1,1,635.1999999997206
sub-110,250,1,FALSE,right,approach,neg,insect35_crop.jpg,4,25,TRUE,249,1,3062.5625,110,EAT                                    DON'T EAT,3061.9907,3039.8218,3028.9692,left,1,left,left,eat,eat,approach,neg,approach-neg,1,1,571.8000000002794
sub-110,251,3,TRUE,left,avoid,neg,fungus33_crop.jpg,4,26,TRUE,250,2,3080.7,110,EAT                                    DON'T EAT,3079.9055,3075.8855,3028.9692,left,2,right,right,not_eat,not_eat,approach,pos,approach-pos,1,1,794.5
sub-110,252,3,FALSE,left,approach,pos,cake18_crop.jpg,4,26,TRUE,251,1,3082.6514,110,EAT                                    DON'T EAT,3081.924,3075.8855,3028.9692,left,1,left,left,eat,eat,approach,pos,approach-pos,1,1,727.4000000003725
sub-110,253,3,FALSE,left,approach,pos,cake30_crop.jpg,4,26,TRUE,252,1,3084.686,110,EAT                                    DON'T EAT,3083.9421,3075.8855,3028.9692,left,1,left,left,eat,eat,approach,pos,approach-pos,1,1,743.8999999999069
sub-110,254,3,FALSE,left,approach,pos,cake32_crop.jpg,4,26,TRUE,253,1,3086.5647,110,EAT                                    DON'T EAT,3085.9604,3075.8855,3028.9692,left,1,left,left,eat,eat,approach,pos,approach-pos,1,1,604.2999999998137
sub-110,255,3,FALSE,left,approach,pos,cake40_crop.jpg,4,26,TRUE,254,1,3088.5273,110,EAT                                    DON'T EAT,3087.9788,3075.8855,3028.9692,left,1,left,left,eat,eat,approach,pos,approach-pos,1,1,548.5000000004657
sub-110,256,3,FALSE,left,approach,pos,cake20_crop.jpg,4,26,TRUE,255,1,3090.5474,110,EAT                                    DON'T EAT,3089.997,3075.8855,3028.9692,left,1,left,left,eat,eat,approach,pos,approach-pos,1,1,550.3999999999069
sub-110,257,3,FALSE,left,approach,pos,cake15_crop.jpg,4,26,TRUE,256,1,3092.4385,110,EAT                                    DON'T EAT,3092.0154000000002,3075.8855,3028.9692,left,1,left,left,eat,eat,approach,pos,approach-pos,1,1,423.09999999962747
sub-110,258,3,FALSE,left,approach,pos,cake8_crop.jpg,4,26,TRUE,257,1,3094.6016,110,EAT                                    DON'T EAT,3094.034,3075.8855,3028.9692,left,1,left,left,eat,eat,approach,pos,approach-pos,1,1,567.6000000000931
sub-110,259,3,FALSE,left,approach,pos,cake26_crop.jpg,4,26,TRUE,258,1,3096.5693,110,EAT                                    DON'T EAT,3096.0522,3075.8855,3028.9692,left,1,left,left,eat,eat,approach,pos,approach-pos,1,1,517.1000000000931
sub-110,260,3,TRUE,left,avoid,pos,meat29_crop.jpg,4,26,TRUE,259,2,3098.7166,110,EAT                                    DON'T EAT,3098.0706,3075.8855,3028.9692,left,2,right,right,not_eat,not_eat,approach,pos,approach-pos,1,1,646
sub-110,261,2,FALSE,left,avoid,pos,meat16_crop.jpg,4,27,TRUE,260,2,3116.8274,110,EAT                                    DON'T EAT,3115.9521,3111.9321,3028.9692,left,2,right,right,not_eat,not_eat,avoid,pos,avoid-pos,1,1,875.2999999998137
sub-110,262,2,FALSE,left,avoid,pos,meat15_crop.jpg,4,27,TRUE,261,2,3118.5718,110,EAT                                    DON'T EAT,3117.9705,3111.9321,3028.9692,left,2,right,right,not_eat,not_eat,avoid,pos,avoid-pos,1,1,601.3000000002794
sub-110,263,2,FALSE,left,avoid,pos,meat9_crop.jpg,4,27,TRUE,262,2,3120.5757,110,EAT                                    DON'T EAT,3119.9888,3111.9321,3028.9692,left,2,right,right,not_eat,not_eat,avoid,pos,avoid-pos,1,1,586.8999999994412
sub-110,264,2,TRUE,left,approach,pos,cake6_crop.jpg,4,27,TRUE,263,1,3122.6846,110,EAT                                    DON'T EAT,3122.007,3111.9321,3028.9692,left,1,left,left,eat,eat,avoid,pos,avoid-pos,1,1,677.6000000000931
sub-110,265,2,FALSE,left,avoid,pos,meat20_crop.jpg,4,27,TRUE,264,2,3124.6936,110,EAT                                    DON'T EAT,3124.0254,3111.9321,3028.9692,left,2,right,right,not_eat,not_eat,avoid,pos,avoid-pos,1,1,668.2000000001863
sub-110,266,2,FALSE,left,avoid,pos,meat12_crop.jpg,4,27,TRUE,265,2,3126.5186,110,EAT                                    DON'T EAT,3126.044,3111.9321,3028.9692,left,2,right,right,not_eat,not_eat,avoid,pos,avoid-pos,1,1,474.60000000009313
sub-110,267,2,FALSE,left,avoid,pos,meat24_crop.jpg,4,27,TRUE,266,2,3128.6858,110,EAT                                    DON'T EAT,3128.062,3111.9321,3028.9692,left,2,right,right,not_eat,not_eat,avoid,pos,avoid-pos,1,1,623.8000000002794
sub-110,268,2,FALSE,left,avoid,pos,meat26_crop.jpg,4,27,TRUE,267,2,3130.6501,110,EAT                                    DON'T EAT,3130.0806,3111.9321,3028.9692,left,2,right,right,not_eat,not_eat,avoid,pos,avoid-pos,1,1,569.5
sub-110,269,2,FALSE,left,avoid,pos,meat19_crop.jpg,4,27,TRUE,268,2,3132.598,110,EAT                                    DON'T EAT,3132.0986,3111.9321,3028.9692,left,2,right,right,not_eat,not_eat,avoid,pos,avoid-pos,1,1,499.40000000037253
sub-110,270,2,TRUE,left,approach,neg,insect11_crop.jpg,4,27,TRUE,269,1,3134.7507,110,EAT                                    DON'T EAT,3134.117,3111.9321,3028.9692,left,1,left,left,eat,eat,avoid,pos,avoid-pos,1,1,633.7000000001863
sub-110,271,3,FALSE,right,approach,neg,insect33_crop.jpg,4,28,TRUE,270,1,3152.8076,110,EAT                                    DON'T EAT,3152.1821,3148.162,3028.9692,left,1,left,left,eat,eat,approach,neg,approach-neg,1,1,625.5
sub-110,272,3,TRUE,right,avoid,pos,meat27_crop.jpg,4,28,TRUE,271,2,3154.8647,110,EAT                                    DON'T EAT,3154.2004,3148.162,3028.9692,left,2,right,right,not_eat,not_eat,approach,neg,approach-neg,1,1,664.2999999998137
sub-110,273,3,FALSE,right,approach,neg,insect28_crop.jpg,4,28,TRUE,272,1,3156.8423,110,EAT                                    DON'T EAT,3156.2188,3148.162,3028.9692,left,1,left,left,eat,eat,approach,neg,approach-neg,1,1,623.4999999995343
sub-110,274,3,FALSE,right,approach,neg,insect6_crop.jpg,4,28,TRUE,273,1,3158.8499,110,EAT                                    DON'T EAT,3158.237,3148.162,3028.9692,left,1,left,left,eat,eat,approach,neg,approach-neg,1,1,612.9000000003725
sub-110,275,3,FALSE,right,approach,neg,insect20_crop.jpg,4,28,TRUE,274,1,3160.8105,110,EAT                                    DON'T EAT,3160.2554,3148.162,3028.9692,left,1,left,left,eat,eat,approach,neg,approach-neg,1,1,555.1000000000931
sub-110,276,3,FALSE,right,approach,neg,insect37_crop.jpg,4,28,TRUE,275,1,3162.7903,110,EAT                                    DON'T EAT,3162.274,3148.162,3028.9692,left,1,left,left,eat,eat,approach,neg,approach-neg,1,1,516.3000000002794
sub-110,277,3,FALSE,right,approach,neg,insect25_crop.jpg,4,28,TRUE,276,1,3164.8325,110,EAT                                    DON'T EAT,3164.2922,3148.162,3028.9692,left,1,left,left,eat,eat,approach,neg,approach-neg,1,1,540.3000000002794
sub-110,278,3,FALSE,right,approach,neg,insect15_crop.jpg,4,28,TRUE,277,1,3166.7954,110,EAT                                    DON'T EAT,3166.3105,3148.162,3028.9692,left,1,left,left,eat,eat,approach,neg,approach-neg,1,1,484.89999999990687
sub-110,279,3,FALSE,right,approach,neg,insect26_crop.jpg,4,28,TRUE,278,1,3168.7917,110,EAT                                    DON'T EAT,3168.3289,3148.162,3028.9692,left,1,left,left,eat,eat,approach,neg,approach-neg,1,1,462.8000000002794
sub-110,280,3,TRUE,right,avoid,neg,fungus24_crop.jpg,4,28,TRUE,279,2,3170.9055,110,EAT                                    DON'T EAT,3170.3472,3148.162,3028.9692,left,2,right,right,not_eat,not_eat,approach,neg,approach-neg,1,1,558.2999999998137
sub-110,281,1,FALSE,right,avoid,pos,meat15_crop.jpg,4,29,TRUE,280,2,3189.84,110,EAT                                    DON'T EAT,3189.1462,3185.1257,3028.9692,left,2,right,right,not_eat,not_eat,avoid,pos,avoid-pos,1,1,693.7999999998137
sub-110,282,1,FALSE,right,avoid,pos,meat26_crop.jpg,4,29,TRUE,281,2,3191.6494,110,EAT                                    DON'T EAT,3191.1646,3185.1257,3028.9692,left,2,right,right,not_eat,not_eat,avoid,pos,avoid-pos,1,1,484.79999999981374
sub-110,283,1,FALSE,right,avoid,pos,meat14_crop.jpg,4,29,TRUE,282,2,3193.7637,110,EAT                                    DON'T EAT,3193.1829,3185.1257,3028.9692,left,2,right,right,not_eat,not_eat,avoid,pos,avoid-pos,1,1,580.8000000002794
sub-110,284,1,FALSE,right,avoid,pos,meat7_crop.jpg,4,29,TRUE,283,2,3195.7725,110,EAT                                    DON'T EAT,3195.2012,3185.1257,3028.9692,left,2,right,right,not_eat,not_eat,avoid,pos,avoid-pos,1,1,571.2999999998137
sub-110,285,1,FALSE,right,avoid,pos,meat16_crop.jpg,4,29,TRUE,284,2,3197.8464,110,EAT                                    DON'T EAT,3197.2188,3185.1257,3028.9692,left,2,right,right,not_eat,not_eat,avoid,pos,avoid-pos,1,1,627.5999999996275
sub-110,286,1,FALSE,right,avoid,pos,meat40_crop.jpg,4,29,TRUE,285,2,3199.8376,110,EAT                                    DON'T EAT,3199.2378,3185.1257,3028.9692,left,2,right,right,not_eat,not_eat,avoid,pos,avoid-pos,1,1,599.7999999998137
sub-110,287,1,TRUE,right,approach,pos,cake12_crop.jpg,4,29,TRUE,286,1,3201.9858,110,EAT                                    DON'T EAT,3201.256,3185.1257,3028.9692,left,1,left,left,eat,eat,avoid,pos,avoid-pos,1,1,729.7999999998137
sub-110,288,1,FALSE,right,avoid,pos,meat22_crop.jpg,4,29,TRUE,287,2,3203.879,110,EAT                                    DON'T EAT,3203.2744,3185.1257,3028.9692,left,2,right,right,not_eat,not_eat,avoid,pos,avoid-pos,1,1,604.6000000000931
sub-110,289,1,FALSE,right,avoid,pos,meat18_crop.jpg,4,29,TRUE,288,2,3205.8962,110,EAT                                    DON'T EAT,3205.293,3185.1257,3028.9692,left,2,right,right,not_eat,not_eat,avoid,pos,avoid-pos,1,1,603.2000000001863
sub-110,290,1,TRUE,right,approach,neg,insect23_crop.jpg,4,29,TRUE,289,1,3207.9473,110,EAT                                    DON'T EAT,3207.311,3185.1257,3028.9692,left,1,left,left,eat,eat,avoid,pos,avoid-pos,1,1,636.2999999998137
sub-110,291,0,FALSE,left,approach,pos,cake39_crop.jpg,4,30,TRUE,290,1,3227.8572,110,EAT                                    DON'T EAT,3227.177,3223.1575,3028.9692,left,1,left,left,eat,eat,approach,pos,approach-pos,1,1,680.1999999997206
sub-110,292,0,FALSE,left,approach,pos,cake29_crop.jpg,4,30,TRUE,291,1,3229.7146,110,EAT                                    DON'T EAT,3229.196,3223.1575,3028.9692,left,1,left,left,eat,eat,approach,pos,approach-pos,1,1,518.5999999996275
sub-110,293,0,FALSE,left,approach,pos,cake19_crop.jpg,4,30,TRUE,292,1,3231.745,110,EAT                                    DON'T EAT,3231.2144,3223.1575,3028.9692,left,1,left,left,eat,eat,approach,pos,approach-pos,1,1,530.6000000000931
sub-110,294,0,FALSE,left,approach,pos,cake14_crop.jpg,4,30,TRUE,293,1,3233.7412,110,EAT                                    DON'T EAT,3233.2327,3223.1575,3028.9692,left,1,left,left,eat,eat,approach,pos,approach-pos,1,1,508.49999999953434
sub-110,295,0,FALSE,left,approach,pos,cake5_crop.jpg,4,30,TRUE,294,1,3235.717,110,EAT                                    DON'T EAT,3235.251,3223.1575,3028.9692,left,1,left,left,eat,eat,approach,pos,approach-pos,1,1,466
sub-110,296,0,TRUE,left,avoid,pos,meat8_crop.jpg,4,30,TRUE,295,2,3237.9077,110,EAT                                    DON'T EAT,3237.2688,3223.1575,3028.9692,left,2,right,right,not_eat,not_eat,approach,pos,approach-pos,1,1,638.9000000003725
sub-110,297,0,TRUE,left,avoid,neg,fungus14_crop.jpg,4,30,TRUE,296,2,3240.0596,110,EAT                                    DON'T EAT,3239.2876,3223.1575,3028.9692,left,2,right,right,not_eat,not_eat,approach,pos,approach-pos,1,1,772
sub-110,298,0,FALSE,left,approach,pos,cake3_crop.jpg,4,30,TRUE,297,1,3241.9102,110,EAT                                    DON'T EAT,3241.3062,3223.1575,3028.9692,left,1,left,left,eat,eat,approach,pos,approach-pos,1,1,603.9999999995343
sub-110,299,0,FALSE,left,approach,pos,cake11_crop.jpg,4,30,TRUE,298,1,3243.9587,110,EAT                                    DON'T EAT,3243.3245,3223.1575,3028.9692,left,1,left,left,eat,eat,approach,pos,approach-pos,1,1,634.2000000001863
sub-110,300,0,FALSE,left,approach,pos,cake36_crop.jpg,4,30,TRUE,299,1,3245.871,110,EAT                                    DON'T EAT,3245.3428,3223.1575,3028.9692,left,1,left,left,eat,eat,approach,pos,approach-pos,1,1,528.2000000001863
sub-110,301,1,FALSE,right,avoid,neg,fungus25_crop.jpg,4,31,TRUE,300,2,3262.19,110,EAT                                    DON'T EAT,3261.556,3257.536,3028.9692,left,2,right,right,not_eat,not_eat,avoid,neg,avoid-neg,1,1,634
sub-110,302,1,TRUE,right,approach,neg,insect21_crop.jpg,4,31,TRUE,301,2,3264.0706,110,EAT                                    DON'T EAT,3263.5745,3257.536,3028.9692,left,2,right,right,not_eat,not_eat,avoid,neg,avoid-neg,0,0,496.10000000009313
sub-110,303,1,FALSE,right,avoid,neg,fungus2_crop.jpg,4,31,TRUE,302,1,3265.7617,110,EAT                                    DON'T EAT,3265.5928,3257.536,3028.9692,left,1,left,left,eat,eat,avoid,neg,avoid-neg,0,0,168.90000000037253
sub-110,304,1,FALSE,right,avoid,neg,fungus7_crop.jpg,4,31,TRUE,303,2,3268.1616,110,EAT                                    DON'T EAT,3267.611,3257.536,3028.9692,left,2,right,right,not_eat,not_eat,avoid,neg,avoid-neg,1,1,550.6000000000931
sub-110,305,1,FALSE,right,avoid,neg,fungus22_crop.jpg,4,31,TRUE,304,2,3270.308,110,EAT                                    DON'T EAT,3269.6294,3257.536,3028.9692,left,2,right,right,not_eat,not_eat,avoid,neg,avoid-neg,1,1,678.6000000000931
sub-110,306,1,FALSE,right,avoid,neg,fungus29_crop.jpg,4,31,TRUE,305,2,3272.2905,110,EAT                                    DON'T EAT,3271.648,3257.536,3028.9692,left,2,right,right,not_eat,not_eat,avoid,neg,avoid-neg,1,1,642.5
sub-110,307,1,TRUE,right,approach,pos,cake36_crop.jpg,4,31,TRUE,306,1,3274.5215,110,EAT                                    DON'T EAT,3273.6663,3257.536,3028.9692,left,1,left,left,eat,eat,avoid,neg,avoid-neg,1,1,855.2000000001863
sub-110,308,1,FALSE,right,avoid,neg,fungus15_crop.jpg,4,31,TRUE,307,2,3276.3535,110,EAT                                    DON'T EAT,3275.6846,3257.536,3028.9692,left,2,right,right,not_eat,not_eat,avoid,neg,avoid-neg,1,1,668.8999999999069
sub-110,309,1,FALSE,right,avoid,neg,fungus35_crop.jpg,4,31,TRUE,308,2,3278.3906,110,EAT                                    DON'T EAT,3277.703,3257.536,3028.9692,left,2,right,right,not_eat,not_eat,avoid,neg,avoid-neg,1,1,687.6000000000931
sub-110,310,1,FALSE,right,avoid,neg,fungus34_crop.jpg,4,31,TRUE,309,2,3280.281,110,EAT                                    DON'T EAT,3279.7212,3257.536,3028.9692,left,2,right,right,not_eat,not_eat,avoid,neg,avoid-neg,1,1,559.7999999998137
sub-110,311,3,FALSE,left,approach,neg,insect16_crop.jpg,4,32,TRUE,310,1,3299.0073,110,EAT                                    DON'T EAT,3298.32,3294.2998,3028.9692,left,1,left,left,eat,eat,approach,neg,approach-neg,1,1,687.3000000002794
sub-110,312,3,FALSE,left,approach,neg,insect14_crop.jpg,4,32,TRUE,311,1,3300.9617,110,EAT                                    DON'T EAT,3300.338,3294.2998,3028.9692,left,1,left,left,eat,eat,approach,neg,approach-neg,1,1,623.6999999997206
sub-110,313,3,FALSE,left,approach,neg,insect6_crop.jpg,4,32,TRUE,312,1,3303.014,110,EAT                                    DON'T EAT,3302.3567,3294.2998,3028.9692,left,1,left,left,eat,eat,approach,neg,approach-neg,1,1,657.3000000002794
sub-110,314,3,FALSE,left,approach,neg,insect23_crop.jpg,4,32,TRUE,313,1,3304.891,110,EAT                                    DON'T EAT,3304.3748,3294.2998,3028.9692,left,1,left,left,eat,eat,approach,neg,approach-neg,1,1,516.1999999997206
sub-110,315,3,FALSE,left,approach,neg,insect10_crop.jpg,4,32,TRUE,314,1,3307.0173,110,EAT                                    DON'T EAT,3306.3933,3294.2998,3028.9692,left,1,left,left,eat,eat,approach,neg,approach-neg,1,1,623.9999999995343
sub-110,316,3,FALSE,left,approach,neg,insect22_crop.jpg,4,32,TRUE,315,1,3309.0354,110,EAT                                    DON'T EAT,3308.4119,3294.2998,3028.9692,left,1,left,left,eat,eat,approach,neg,approach-neg,1,1,623.5000000004657
sub-110,317,3,TRUE,left,avoid,pos,meat6_crop.jpg,4,32,TRUE,316,2,3311.1484,110,EAT                                    DON'T EAT,3310.43,3294.2998,3028.9692,left,2,right,right,not_eat,not_eat,approach,neg,approach-neg,1,1,718.3999999999069
sub-110,318,3,FALSE,left,approach,neg,insect12_crop.jpg,4,32,TRUE,317,1,3313.1045,110,EAT                                    DON'T EAT,3312.448,3294.2998,3028.9692,left,1,left,left,eat,eat,approach,neg,approach-neg,1,1,656.5
sub-110,319,3,TRUE,left,avoid,neg,fungus7_crop.jpg,4,32,TRUE,318,2,3315.1523,110,EAT                                    DON'T EAT,3314.4668,3294.2998,3028.9692,left,2,right,right,not_eat,not_eat,approach,neg,approach-neg,1,1,685.5
sub-110,320,3,FALSE,left,approach,neg,insect13_crop.jpg,4,32,TRUE,319,1,3317.143,110,EAT                                    DON'T EAT,3316.4846,3294.2998,3028.9692,left,1,left,left,eat,eat,approach,neg,approach-neg,1,1,658.4000000003725
