TrialNumber,n_block,catch,hand,mot,val,stim_name,run_number,num_block,ran,order,response,RT,Subject number,n_b,left_side_resp_label,trial_onset,blk_instr_onset,baseline_onset
1,3,False,right,avoid,pos,meat30_crop.jpg,1,1,1.0,0.0,1,2391.5889,999.0,1.0,DON'T EAT                                    EAT,2390.19,2386.1694,2374.8484
2,3,False,right,avoid,pos,meat18_crop.jpg,1,1,1.0,1.0,1,2392.9456,999.0,1.0,DON'T EAT                                    EAT,2392.208,2386.1694,2374.8484
3,3,False,right,avoid,pos,meat33_crop.jpg,1,1,1.0,2.0,1,2395.0813,999.0,1.0,DON'T EAT                                    EAT,2394.2266,2386.1694,2374.8484
4,3,False,right,avoid,pos,meat29_crop.jpg,1,1,1.0,3.0,1,2397.1436,999.0,1.0,DON'T EAT                                    EAT,2396.2478,2386.1694,2374.8484
5,3,False,right,avoid,pos,meat21_crop.jpg,1,1,1.0,4.0,1,2399.0981,999.0,1.0,DON'T EAT                                    EAT,2398.265,2386.1694,2374.8484
6,3,False,right,avoid,pos,meat24_crop.jpg,1,1,1.0,5.0,1,2401.0186,999.0,1.0,DON'T EAT                                    EAT,2400.2815,2386.1694,2374.8484
7,3,True,right,approach,pos,cake13_crop.jpg,1,1,1.0,6.0,--,--,999.0,1.0,DON'T EAT                                    EAT,2402.2998,2386.1694,2374.8484
8,3,True,right,approach,neg,insect20_crop.jpg,1,1,1.0,7.0,1,2405.0334,999.0,1.0,DON'T EAT                                    EAT,2404.318,2386.1694,2374.8484
9,3,False,right,avoid,pos,meat12_crop.jpg,1,1,1.0,8.0,1,2407.0527,999.0,1.0,DON'T EAT                                    EAT,2406.3367,2386.1694,2374.8484
10,3,False,right,avoid,pos,meat7_crop.jpg,1,1,1.0,9.0,1,2409.0813,999.0,1.0,DON'T EAT                                    EAT,2408.355,2386.1694,2374.8484
11,2,False,left,approach,pos,cake25_crop.jpg,1,2,1.0,10.0,--,--,999.0,2.0,DON'T EAT                                    EAT,2428.0212,2424.001,2374.8484
12,2,False,left,approach,pos,cake37_crop.jpg,1,2,1.0,11.0,--,--,999.0,2.0,DON'T EAT                                    EAT,2430.0396,2424.001,2374.8484
13,2,True,left,avoid,pos,meat39_crop.jpg,1,2,1.0,12.0,1,2432.6482,999.0,2.0,DON'T EAT                                    EAT,2432.058,2424.001,2374.8484
14,2,False,left,approach,pos,cake31_crop.jpg,1,2,1.0,13.0,--,--,999.0,2.0,DON'T EAT                                    EAT,2434.0764,2424.001,2374.8484
15,2,True,left,avoid,neg,fungus16_crop.jpg,1,2,1.0,14.0,--,--,999.0,2.0,DON'T EAT                                    EAT,2436.0947,2424.001,2374.8484
16,2,False,left,approach,pos,cake34_crop.jpg,1,2,1.0,15.0,1,2439.0923,999.0,2.0,DON'T EAT                                    EAT,2438.113,2424.001,2374.8484
17,2,False,left,approach,pos,cake20_crop.jpg,1,2,1.0,16.0,--,--,999.0,2.0,DON'T EAT                                    EAT,2440.1313,2424.001,2374.8484
18,2,False,left,approach,pos,cake24_crop.jpg,1,2,1.0,17.0,--,--,999.0,2.0,DON'T EAT                                    EAT,2442.1497,2424.001,2374.8484
19,2,False,left,approach,pos,cake11_crop.jpg,1,2,1.0,18.0,--,--,999.0,2.0,DON'T EAT                                    EAT,2444.168,2424.001,2374.8484
20,2,False,left,approach,pos,cake36_crop.jpg,1,2,1.0,19.0,--,--,999.0,2.0,DON'T EAT                                    EAT,2446.1865,2424.001,2374.8484
21,0,False,right,approach,neg,insect24_crop.jpg,1,3,1.0,20.0,--,--,999.0,3.0,DON'T EAT                                    EAT,2464.8853,2460.8655,2374.8484
22,0,True,right,avoid,pos,meat20_crop.jpg,1,3,1.0,21.0,1,2468.019,999.0,3.0,DON'T EAT                                    EAT,2466.9036,2460.8655,2374.8484
23,0,False,right,approach,neg,insect40_crop.jpg,1,3,1.0,22.0,--,--,999.0,3.0,DON'T EAT                                    EAT,2468.922,2460.8655,2374.8484
24,0,False,right,approach,neg,insect12_crop.jpg,1,3,1.0,23.0,--,--,999.0,3.0,DON'T EAT                                    EAT,2470.9404,2460.8655,2374.8484
25,0,False,right,approach,neg,insect6_crop.jpg,1,3,1.0,24.0,--,--,999.0,3.0,DON'T EAT                                    EAT,2472.9587,2460.8655,2374.8484
26,0,False,right,approach,neg,insect1_crop.jpg,1,3,1.0,25.0,--,--,999.0,3.0,DON'T EAT                                    EAT,2474.9766,2460.8655,2374.8484
27,0,True,right,avoid,neg,fungus2_crop.jpg,1,3,1.0,26.0,1,2477.8792,999.0,3.0,DON'T EAT                                    EAT,2476.9954,2460.8655,2374.8484
28,0,False,right,approach,neg,insect7_crop.jpg,1,3,1.0,27.0,--,--,999.0,3.0,DON'T EAT                                    EAT,2479.0137,2460.8655,2374.8484
29,0,False,right,approach,neg,insect36_crop.jpg,1,3,1.0,28.0,--,--,999.0,3.0,DON'T EAT                                    EAT,2481.0322,2460.8655,2374.8484
30,0,False,right,approach,neg,insect18_crop.jpg,1,3,1.0,29.0,--,--,999.0,3.0,DON'T EAT                                    EAT,2483.05,2460.8655,2374.8484
31,3,True,right,avoid,pos,meat31_crop.jpg,1,4,1.0,30.0,1,2501.6357,999.0,4.0,DON'T EAT                                    EAT,2500.3645,2496.3608,2374.8484
32,3,False,right,approach,neg,insect25_crop.jpg,1,4,1.0,31.0,--,--,999.0,4.0,DON'T EAT                                    EAT,2502.383,2496.3608,2374.8484
33,3,False,right,approach,neg,insect34_crop.jpg,1,4,1.0,32.0,--,--,999.0,4.0,DON'T EAT                                    EAT,2504.4014,2496.3608,2374.8484
34,3,False,right,approach,neg,insect14_crop.jpg,1,4,1.0,33.0,--,--,999.0,4.0,DON'T EAT                                    EAT,2506.4197,2496.3608,2374.8484
35,3,False,right,approach,neg,insect9_crop.jpg,1,4,1.0,34.0,--,--,999.0,4.0,DON'T EAT                                    EAT,2508.438,2496.3608,2374.8484
36,3,False,right,approach,neg,insect32_crop.jpg,1,4,1.0,35.0,--,--,999.0,4.0,DON'T EAT                                    EAT,2510.4565,2496.3608,2374.8484
37,3,False,right,approach,neg,insect2_crop.jpg,1,4,1.0,36.0,--,--,999.0,4.0,DON'T EAT                                    EAT,2512.4746,2496.3608,2374.8484
38,3,True,right,avoid,neg,fungus28_crop.jpg,1,4,1.0,37.0,1,2516.2603,999.0,4.0,DON'T EAT                                    EAT,2514.4932,2496.3608,2374.8484
39,3,False,right,approach,neg,insect33_crop.jpg,1,4,1.0,38.0,--,--,999.0,4.0,DON'T EAT                                    EAT,2516.5115,2496.3608,2374.8484
40,3,False,right,approach,neg,insect21_crop.jpg,1,4,1.0,39.0,--,--,999.0,4.0,DON'T EAT                                    EAT,2518.53,2496.3608,2374.8484
41,3,False,right,avoid,neg,fungus20_crop.jpg,1,5,1.0,40.0,1,2537.3418,999.0,5.0,DON'T EAT                                    EAT,2535.961,2531.941,2374.8484
42,3,False,right,avoid,neg,fungus38_crop.jpg,1,5,1.0,41.0,1,2538.8208,999.0,5.0,DON'T EAT                                    EAT,2537.9795,2531.941,2374.8484
43,3,False,right,avoid,neg,fungus21_crop.jpg,1,5,1.0,42.0,1,2540.6182,999.0,5.0,DON'T EAT                                    EAT,2539.9976,2531.941,2374.8484
44,3,False,right,avoid,neg,fungus35_crop.jpg,1,5,1.0,43.0,1,2542.553,999.0,5.0,DON'T EAT                                    EAT,2542.016,2531.941,2374.8484
45,3,True,right,approach,pos,cake5_crop.jpg,1,5,1.0,44.0,--,--,999.0,5.0,DON'T EAT                                    EAT,2544.0344,2531.941,2374.8484
46,3,False,right,avoid,neg,fungus7_crop.jpg,1,5,1.0,45.0,1,2546.6855,999.0,5.0,DON'T EAT                                    EAT,2546.0527,2531.941,2374.8484
47,3,False,right,avoid,neg,fungus30_crop.jpg,1,5,1.0,46.0,1,2548.9062,999.0,5.0,DON'T EAT                                    EAT,2548.0713,2531.941,2374.8484
48,3,False,right,avoid,neg,fungus19_crop.jpg,1,5,1.0,47.0,1,2550.8474,999.0,5.0,DON'T EAT                                    EAT,2550.089,2531.941,2374.8484
49,3,False,right,avoid,neg,fungus9_crop.jpg,1,5,1.0,48.0,1,2552.561,999.0,5.0,DON'T EAT                                    EAT,2552.1077,2531.941,2374.8484
50,3,True,right,approach,neg,insect10_crop.jpg,1,5,1.0,49.0,--,--,999.0,5.0,DON'T EAT                                    EAT,2554.1262,2531.941,2374.8484
51,2,False,left,avoid,neg,fungus18_crop.jpg,1,6,1.0,50.0,1,2571.7017,999.0,6.0,DON'T EAT                                    EAT,2570.6062,2566.5867,2374.8484
52,2,False,left,avoid,neg,fungus31_crop.jpg,1,6,1.0,51.0,1,2573.2456,999.0,6.0,DON'T EAT                                    EAT,2572.625,2566.5867,2374.8484
53,2,True,left,approach,neg,insect30_crop.jpg,1,6,1.0,52.0,1,2575.1309,999.0,6.0,DON'T EAT                                    EAT,2574.6433,2566.5867,2374.8484
54,2,False,left,avoid,neg,fungus6_crop.jpg,1,6,1.0,53.0,1,2577.358,999.0,6.0,DON'T EAT                                    EAT,2576.6616,2566.5867,2374.8484
55,2,False,left,avoid,neg,fungus15_crop.jpg,1,6,1.0,54.0,1,2579.3643,999.0,6.0,DON'T EAT                                    EAT,2578.68,2566.5867,2374.8484
56,2,False,left,avoid,neg,fungus9_crop.jpg,1,6,1.0,55.0,1,2581.1824,999.0,6.0,DON'T EAT                                    EAT,2580.6982,2566.5867,2374.8484
57,2,False,left,avoid,neg,fungus2_crop.jpg,1,6,1.0,56.0,1,2583.3174,999.0,6.0,DON'T EAT                                    EAT,2582.7166,2566.5867,2374.8484
58,2,True,left,approach,pos,cake16_crop.jpg,1,6,1.0,57.0,--,--,999.0,6.0,DON'T EAT                                    EAT,2584.7349,2566.5867,2374.8484
59,2,False,left,avoid,neg,fungus35_crop.jpg,1,6,1.0,58.0,1,2587.3228,999.0,6.0,DON'T EAT                                    EAT,2586.7532,2566.5867,2374.8484
60,2,False,left,avoid,neg,fungus27_crop.jpg,1,6,1.0,59.0,1,2589.4355,999.0,6.0,DON'T EAT                                    EAT,2588.7715,2566.5867,2374.8484
61,1,False,right,approach,pos,cake22_crop.jpg,1,7,1.0,60.0,--,--,999.0,7.0,DON'T EAT                                    EAT,2607.9543,2603.9338,2374.8484
62,1,False,right,approach,pos,cake3_crop.jpg,1,7,1.0,61.0,--,--,999.0,7.0,DON'T EAT                                    EAT,2609.9727,2603.9338,2374.8484
63,1,False,right,approach,pos,cake19_crop.jpg,1,7,1.0,62.0,--,--,999.0,7.0,DON'T EAT                                    EAT,2611.9907,2603.9338,2374.8484
64,1,False,right,approach,pos,cake39_crop.jpg,1,7,1.0,63.0,--,--,999.0,7.0,DON'T EAT                                    EAT,2614.0093,2603.9338,2374.8484
65,1,False,right,approach,pos,cake8_crop.jpg,1,7,1.0,64.0,--,--,999.0,7.0,DON'T EAT                                    EAT,2616.0276,2603.9338,2374.8484
66,1,False,right,approach,pos,cake17_crop.jpg,1,7,1.0,65.0,--,--,999.0,7.0,DON'T EAT                                    EAT,2618.0461,2603.9338,2374.8484
67,1,True,right,avoid,neg,fungus40_crop.jpg,1,7,1.0,66.0,1,2620.7595,999.0,7.0,DON'T EAT                                    EAT,2620.0645,2603.9338,2374.8484
68,1,True,right,avoid,pos,meat15_crop.jpg,1,7,1.0,67.0,--,--,999.0,7.0,DON'T EAT                                    EAT,2622.0828,2603.9338,2374.8484
69,1,False,right,approach,pos,cake4_crop.jpg,1,7,1.0,68.0,--,--,999.0,7.0,DON'T EAT                                    EAT,2624.1008,2603.9338,2374.8484
70,1,False,right,approach,pos,cake18_crop.jpg,1,7,1.0,69.0,--,--,999.0,7.0,DON'T EAT                                    EAT,2626.1194,2603.9338,2374.8484
71,1,False,right,approach,neg,insect35_crop.jpg,1,8,1.0,70.0,--,--,999.0,8.0,DON'T EAT                                    EAT,2644.9517,2640.9316,2374.8484
72,1,False,right,approach,neg,insect23_crop.jpg,1,8,1.0,71.0,--,--,999.0,8.0,DON'T EAT                                    EAT,2646.97,2640.9316,2374.8484
73,1,False,right,approach,neg,insect26_crop.jpg,1,8,1.0,72.0,--,--,999.0,8.0,DON'T EAT                                    EAT,2648.9883,2640.9316,2374.8484
74,1,False,right,approach,neg,insect3_crop.jpg,1,8,1.0,73.0,--,--,999.0,8.0,DON'T EAT                                    EAT,2651.0066,2640.9316,2374.8484
75,1,False,right,approach,neg,insect8_crop.jpg,1,8,1.0,74.0,--,--,999.0,8.0,DON'T EAT                                    EAT,2653.0251,2640.9316,2374.8484
76,1,True,right,avoid,pos,meat16_crop.jpg,1,8,1.0,75.0,1,2655.831,999.0,8.0,DON'T EAT                                    EAT,2655.0435,2640.9316,2374.8484
77,1,False,right,approach,neg,insect4_crop.jpg,1,8,1.0,76.0,--,--,999.0,8.0,DON'T EAT                                    EAT,2657.0618,2640.9316,2374.8484
78,1,True,right,avoid,neg,fungus17_crop.jpg,1,8,1.0,77.0,1,2659.8066,999.0,8.0,DON'T EAT                                    EAT,2659.08,2640.9316,2374.8484
79,1,False,right,approach,neg,insect5_crop.jpg,1,8,1.0,78.0,--,--,999.0,8.0,DON'T EAT                                    EAT,2661.0984,2640.9316,2374.8484
80,1,False,right,approach,neg,insect29_crop.jpg,1,8,1.0,79.0,--,--,999.0,8.0,DON'T EAT                                    EAT,2663.1167,2640.9316,2374.8484
81,2,False,right,avoid,neg,fungus18_crop.jpg,2,9,1.0,80.0,1,2772.534,999.0,9.0,DON'T EAT                                    EAT,2771.6404,2767.6204,2753.6748
82,2,True,right,approach,pos,cake35_crop.jpg,2,9,1.0,81.0,--,--,999.0,9.0,DON'T EAT                                    EAT,2773.6587,2767.6204,2753.6748
83,2,True,right,approach,neg,insect11_crop.jpg,2,9,1.0,82.0,--,--,999.0,9.0,DON'T EAT                                    EAT,2775.6768,2767.6204,2753.6748
84,2,False,right,avoid,neg,fungus37_crop.jpg,2,9,1.0,83.0,1,2778.3813,999.0,9.0,DON'T EAT                                    EAT,2777.6953,2767.6204,2753.6748
85,2,False,right,avoid,neg,fungus3_crop.jpg,2,9,1.0,84.0,1,2781.0605,999.0,9.0,DON'T EAT                                    EAT,2779.7136,2767.6204,2753.6748
86,2,False,right,avoid,neg,fungus36_crop.jpg,2,9,1.0,85.0,1,2782.3442,999.0,9.0,DON'T EAT                                    EAT,2781.732,2767.6204,2753.6748
87,2,False,right,avoid,neg,fungus27_crop.jpg,2,9,1.0,86.0,1,2784.2563,999.0,9.0,DON'T EAT                                    EAT,2783.7505,2767.6204,2753.6748
88,2,False,right,avoid,neg,fungus5_crop.jpg,2,9,1.0,87.0,1,2786.3074,999.0,9.0,DON'T EAT                                    EAT,2785.768,2767.6204,2753.6748
89,2,False,right,avoid,neg,fungus4_crop.jpg,2,9,1.0,88.0,1,2788.2283,999.0,9.0,DON'T EAT                                    EAT,2787.7869,2767.6204,2753.6748
90,2,False,right,avoid,neg,fungus31_crop.jpg,2,9,1.0,89.0,1,2790.2268,999.0,9.0,DON'T EAT                                    EAT,2789.8054,2767.6204,2753.6748
91,2,True,left,approach,neg,insect27_crop.jpg,2,10,1.0,90.0,--,--,999.0,10.0,DON'T EAT                                    EAT,2807.7869,2803.7668,2753.6748
92,2,False,left,avoid,pos,meat19_crop.jpg,2,10,1.0,91.0,1,2810.5413,999.0,10.0,DON'T EAT                                    EAT,2809.8054,2803.7668,2753.6748
93,2,False,left,avoid,pos,meat17_crop.jpg,2,10,1.0,92.0,1,2812.8684,999.0,10.0,DON'T EAT                                    EAT,2811.8237,2803.7668,2753.6748
94,2,False,left,avoid,pos,meat26_crop.jpg,2,10,1.0,93.0,1,2814.3892,999.0,10.0,DON'T EAT                                    EAT,2813.842,2803.7668,2753.6748
95,2,False,left,avoid,pos,meat33_crop.jpg,2,10,1.0,94.0,1,2816.294,999.0,10.0,DON'T EAT                                    EAT,2815.86,2803.7668,2753.6748
96,2,False,left,avoid,pos,meat9_crop.jpg,2,10,1.0,95.0,1,2818.331,999.0,10.0,DON'T EAT                                    EAT,2817.8787,2803.7668,2753.6748
97,2,False,left,avoid,pos,meat5_crop.jpg,2,10,1.0,96.0,1,2820.284,999.0,10.0,DON'T EAT                                    EAT,2819.897,2803.7668,2753.6748
98,2,False,left,avoid,pos,meat15_crop.jpg,2,10,1.0,97.0,1,2822.3274,999.0,10.0,DON'T EAT                                    EAT,2821.9155,2803.7668,2753.6748
99,2,False,left,avoid,pos,meat21_crop.jpg,2,10,1.0,98.0,--,--,999.0,10.0,DON'T EAT                                    EAT,2823.9338,2803.7668,2753.6748
100,2,True,left,approach,pos,cake6_crop.jpg,2,10,1.0,99.0,--,--,999.0,10.0,DON'T EAT                                    EAT,2825.9517,2803.7668,2753.6748
101,3,True,left,approach,neg,insect21_crop.jpg,2,11,1.0,100.0,--,--,999.0,11.0,DON'T EAT                                    EAT,2845.0679,2841.0479,2753.6748
102,3,False,left,avoid,neg,fungus33_crop.jpg,2,11,1.0,101.0,--,--,999.0,11.0,DON'T EAT                                    EAT,2847.0864,2841.0479,2753.6748
103,3,True,left,approach,pos,cake35_crop.jpg,2,11,1.0,102.0,--,--,999.0,11.0,DON'T EAT                                    EAT,2849.1042,2841.0479,2753.6748
104,3,False,left,avoid,neg,fungus32_crop.jpg,2,11,1.0,103.0,--,--,999.0,11.0,DON'T EAT                                    EAT,2851.1226,2841.0479,2753.6748
105,3,False,left,avoid,neg,fungus10_crop.jpg,2,11,1.0,104.0,1,2853.8574,999.0,11.0,DON'T EAT                                    EAT,2853.1414,2841.0479,2753.6748
106,3,False,left,avoid,neg,fungus26_crop.jpg,2,11,1.0,105.0,1,2855.935,999.0,11.0,DON'T EAT                                    EAT,2855.1597,2841.0479,2753.6748
107,3,False,left,avoid,neg,fungus39_crop.jpg,2,11,1.0,106.0,1,2857.823,999.0,11.0,DON'T EAT                                    EAT,2857.178,2841.0479,2753.6748
108,3,False,left,avoid,neg,fungus12_crop.jpg,2,11,1.0,107.0,1,2859.849,999.0,11.0,DON'T EAT                                    EAT,2859.1965,2841.0479,2753.6748
109,3,False,left,avoid,neg,fungus19_crop.jpg,2,11,1.0,108.0,1,2861.7603,999.0,11.0,DON'T EAT                                    EAT,2861.2148,2841.0479,2753.6748
110,3,False,left,avoid,neg,fungus11_crop.jpg,2,11,1.0,109.0,1,2863.748,999.0,11.0,DON'T EAT                                    EAT,2863.2332,2841.0479,2753.6748
111,1,True,right,approach,pos,cake21_crop.jpg,2,12,1.0,110.0,--,--,999.0,12.0,DON'T EAT                                    EAT,2880.2805,2876.2603,2753.6748
112,1,False,right,avoid,pos,meat32_crop.jpg,2,12,1.0,111.0,1,2882.9766,999.0,12.0,DON'T EAT                                    EAT,2882.299,2876.2603,2753.6748
113,1,False,right,avoid,pos,meat13_crop.jpg,2,12,1.0,112.0,1,2884.9165,999.0,12.0,DON'T EAT                                    EAT,2884.3171,2876.2603,2753.6748
114,1,False,right,avoid,pos,meat22_crop.jpg,2,12,1.0,113.0,1,2886.8113,999.0,12.0,DON'T EAT                                    EAT,2886.3357,2876.2603,2753.6748
115,1,False,right,avoid,pos,meat40_crop.jpg,2,12,1.0,114.0,1,2889.0088,999.0,12.0,DON'T EAT                                    EAT,2888.354,2876.2603,2753.6748
116,1,False,right,avoid,pos,meat35_crop.jpg,2,12,1.0,115.0,1,2890.9204,999.0,12.0,DON'T EAT                                    EAT,2890.3723,2876.2603,2753.6748
117,1,False,right,avoid,pos,meat19_crop.jpg,2,12,1.0,116.0,1,2892.834,999.0,12.0,DON'T EAT                                    EAT,2892.3906,2876.2603,2753.6748
118,1,False,right,avoid,pos,meat26_crop.jpg,2,12,1.0,117.0,1,2894.872,999.0,12.0,DON'T EAT                                    EAT,2894.4092,2876.2603,2753.6748
119,1,False,right,avoid,pos,meat37_crop.jpg,2,12,1.0,118.0,1,2896.9773,999.0,12.0,DON'T EAT                                    EAT,2896.4272,2876.2603,2753.6748
120,1,True,right,approach,neg,insect30_crop.jpg,2,12,1.0,119.0,--,--,999.0,12.0,DON'T EAT                                    EAT,2898.4458,2876.2603,2753.6748
121,2,False,right,avoid,pos,meat6_crop.jpg,2,13,1.0,120.0,1,2917.576,999.0,13.0,DON'T EAT                                    EAT,2916.711,2912.691,2753.6748
122,2,False,right,avoid,pos,meat27_crop.jpg,2,13,1.0,121.0,1,2919.2686,999.0,13.0,DON'T EAT                                    EAT,2918.7292,2912.691,2753.6748
123,2,True,right,approach,pos,cake25_crop.jpg,2,13,1.0,122.0,--,--,999.0,13.0,DON'T EAT                                    EAT,2920.7476,2912.691,2753.6748
124,2,False,right,avoid,pos,meat14_crop.jpg,2,13,1.0,123.0,1,2923.4395,999.0,13.0,DON'T EAT                                    EAT,2922.766,2912.691,2753.6748
125,2,False,right,avoid,pos,meat3_crop.jpg,2,13,1.0,124.0,1,2925.3765,999.0,13.0,DON'T EAT                                    EAT,2924.7844,2912.691,2753.6748
126,2,False,right,avoid,pos,meat4_crop.jpg,2,13,1.0,125.0,1,2927.2974,999.0,13.0,DON'T EAT                                    EAT,2926.8027,2912.691,2753.6748
127,2,False,right,avoid,pos,meat39_crop.jpg,2,13,1.0,126.0,1,2929.3252,999.0,13.0,DON'T EAT                                    EAT,2928.821,2912.691,2753.6748
128,2,False,right,avoid,pos,meat10_crop.jpg,2,13,1.0,127.0,1,2931.431,999.0,13.0,DON'T EAT                                    EAT,2930.8394,2912.691,2753.6748
129,2,False,right,avoid,pos,meat9_crop.jpg,2,13,1.0,128.0,1,2933.3013,999.0,13.0,DON'T EAT                                    EAT,2932.8577,2912.691,2753.6748
130,2,True,right,approach,neg,insect39_crop.jpg,2,13,1.0,129.0,--,--,999.0,13.0,DON'T EAT                                    EAT,2934.8762,2912.691,2753.6748
131,1,False,left,avoid,neg,fungus36_crop.jpg,2,14,1.0,130.0,1,2953.7703,999.0,14.0,DON'T EAT                                    EAT,2953.108,2949.088,2753.6748
132,1,False,left,avoid,neg,fungus21_crop.jpg,2,14,1.0,131.0,1,2955.6016,999.0,14.0,DON'T EAT                                    EAT,2955.1262,2949.088,2753.6748
133,1,False,left,avoid,neg,fungus23_crop.jpg,2,14,1.0,132.0,1,2957.6194,999.0,14.0,DON'T EAT                                    EAT,2957.1445,2949.088,2753.6748
134,1,True,left,approach,neg,insect15_crop.jpg,2,14,1.0,133.0,--,--,999.0,14.0,DON'T EAT                                    EAT,2959.1628,2949.088,2753.6748
135,1,True,left,approach,pos,cake22_crop.jpg,2,14,1.0,134.0,1,2961.6956,999.0,14.0,DON'T EAT                                    EAT,2961.1812,2949.088,2753.6748
136,1,False,left,avoid,neg,fungus34_crop.jpg,2,14,1.0,135.0,1,2963.8213,999.0,14.0,DON'T EAT                                    EAT,2963.1995,2949.088,2753.6748
137,1,False,left,avoid,neg,fungus22_crop.jpg,2,14,1.0,136.0,1,2965.8418,999.0,14.0,DON'T EAT                                    EAT,2965.218,2949.088,2753.6748
138,1,False,left,avoid,neg,fungus14_crop.jpg,2,14,1.0,137.0,1,2967.8901,999.0,14.0,DON'T EAT                                    EAT,2967.236,2949.088,2753.6748
139,1,False,left,avoid,neg,fungus29_crop.jpg,2,14,1.0,138.0,1,2969.7073,999.0,14.0,DON'T EAT                                    EAT,2969.2546,2949.088,2753.6748
140,1,False,left,avoid,neg,fungus8_crop.jpg,2,14,1.0,139.0,1,2971.938,999.0,14.0,DON'T EAT                                    EAT,2971.273,2949.088,2753.6748
141,1,False,left,avoid,pos,meat18_crop.jpg,2,15,1.0,140.0,1,2992.057,999.0,15.0,DON'T EAT                                    EAT,2990.739,2986.719,2753.6748
142,1,False,left,avoid,pos,meat38_crop.jpg,2,15,1.0,141.0,1,2993.314,999.0,15.0,DON'T EAT                                    EAT,2992.7576,2986.719,2753.6748
143,1,False,left,avoid,pos,meat11_crop.jpg,2,15,1.0,142.0,1,2995.2407,999.0,15.0,DON'T EAT                                    EAT,2994.7761,2986.719,2753.6748
144,1,False,left,avoid,pos,meat28_crop.jpg,2,15,1.0,143.0,1,2997.347,999.0,15.0,DON'T EAT                                    EAT,2996.7942,2986.719,2753.6748
145,1,True,left,approach,neg,insect8_crop.jpg,2,15,1.0,144.0,--,--,999.0,15.0,DON'T EAT                                    EAT,2998.8125,2986.719,2753.6748
146,1,True,left,approach,pos,cake5_crop.jpg,2,15,1.0,145.0,--,--,999.0,15.0,DON'T EAT                                    EAT,3000.831,2986.719,2753.6748
147,1,False,left,avoid,pos,meat14_crop.jpg,2,15,1.0,146.0,1,3003.6165,999.0,15.0,DON'T EAT                                    EAT,3002.849,2986.719,2753.6748
148,1,False,left,avoid,pos,meat20_crop.jpg,2,15,1.0,147.0,1,3005.406,999.0,15.0,DON'T EAT                                    EAT,3004.8674,2986.719,2753.6748
149,1,False,left,avoid,pos,meat31_crop.jpg,2,15,1.0,148.0,1,3007.4644,999.0,15.0,DON'T EAT                                    EAT,3006.886,2986.719,2753.6748
150,1,False,left,avoid,pos,meat36_crop.jpg,2,15,1.0,149.0,1,3009.3674,999.0,15.0,DON'T EAT                                    EAT,3008.9043,2986.719,2753.6748
151,3,True,right,avoid,pos,meat11_crop.jpg,2,16,1.0,150.0,1,3029.0134,999.0,16.0,DON'T EAT                                    EAT,3028.3203,3024.3,2753.6748
152,3,False,right,approach,pos,cake37_crop.jpg,2,16,1.0,151.0,1,3030.7693,999.0,16.0,DON'T EAT                                    EAT,3030.3386,3024.3,2753.6748
153,3,False,right,approach,pos,cake20_crop.jpg,2,16,1.0,152.0,--,--,999.0,16.0,DON'T EAT                                    EAT,3032.357,3024.3,2753.6748
154,3,False,right,approach,pos,cake23_crop.jpg,2,16,1.0,153.0,--,--,999.0,16.0,DON'T EAT                                    EAT,3034.3755,3024.3,2753.6748
155,3,False,right,approach,pos,cake14_crop.jpg,2,16,1.0,154.0,--,--,999.0,16.0,DON'T EAT                                    EAT,3036.3938,3024.3,2753.6748
156,3,False,right,approach,pos,cake24_crop.jpg,2,16,1.0,155.0,--,--,999.0,16.0,DON'T EAT                                    EAT,3038.412,3024.3,2753.6748
157,3,False,right,approach,pos,cake15_crop.jpg,2,16,1.0,156.0,--,--,999.0,16.0,DON'T EAT                                    EAT,3040.4304,3024.3,2753.6748
158,3,True,right,avoid,neg,fungus23_crop.jpg,2,16,1.0,157.0,1,3043.1387,999.0,16.0,DON'T EAT                                    EAT,3042.449,3024.3,2753.6748
159,3,False,right,approach,pos,cake31_crop.jpg,2,16,1.0,158.0,--,--,999.0,16.0,DON'T EAT                                    EAT,3044.4666,3024.3,2753.6748
160,3,False,right,approach,pos,cake38_crop.jpg,2,16,1.0,159.0,--,--,999.0,16.0,DON'T EAT                                    EAT,3046.4849,3024.3,2753.6748
161,1,False,right,avoid,neg,fungus13_crop.jpg,3,17,1.0,160.0,1,3137.562,999.0,17.0,DON'T EAT                                    EAT,3136.494,3132.4736,3118.5173
162,1,False,right,avoid,neg,fungus32_crop.jpg,3,17,1.0,161.0,--,--,999.0,17.0,DON'T EAT                                    EAT,3138.512,3132.4736,3118.5173
163,1,False,right,avoid,neg,fungus16_crop.jpg,3,17,1.0,162.0,1,3141.1013,999.0,17.0,DON'T EAT                                    EAT,3140.5303,3132.4736,3118.5173
164,1,False,right,avoid,neg,fungus12_crop.jpg,3,17,1.0,163.0,1,3143.0105,999.0,17.0,DON'T EAT                                    EAT,3142.5486,3132.4736,3118.5173
165,1,False,right,avoid,neg,fungus26_crop.jpg,3,17,1.0,164.0,1,3144.9756,999.0,17.0,DON'T EAT                                    EAT,3144.5667,3132.4736,3118.5173
166,1,False,right,avoid,neg,fungus15_crop.jpg,3,17,1.0,165.0,1,3147.1443,999.0,17.0,DON'T EAT                                    EAT,3146.5854,3132.4736,3118.5173
167,1,True,right,approach,pos,cake2_crop.jpg,3,17,1.0,166.0,--,--,999.0,17.0,DON'T EAT                                    EAT,3148.6038,3132.4736,3118.5173
168,1,False,right,avoid,neg,fungus6_crop.jpg,3,17,1.0,167.0,1,3151.244,999.0,17.0,DON'T EAT                                    EAT,3150.622,3132.4736,3118.5173
169,1,False,right,avoid,neg,fungus33_crop.jpg,3,17,1.0,168.0,1,3153.4724,999.0,17.0,DON'T EAT                                    EAT,3152.6404,3132.4736,3118.5173
170,1,True,right,approach,neg,insect16_crop.jpg,3,17,1.0,169.0,--,--,999.0,17.0,DON'T EAT                                    EAT,3154.6587,3132.4736,3118.5173
171,0,False,right,avoid,neg,fungus8_crop.jpg,3,18,1.0,170.0,1,3174.215,999.0,18.0,DON'T EAT                                    EAT,3173.5078,3169.4878,3118.5173
172,0,False,right,avoid,neg,fungus29_crop.jpg,3,18,1.0,171.0,1,3176.2495,999.0,18.0,DON'T EAT                                    EAT,3175.5261,3169.4878,3118.5173
173,0,True,right,approach,neg,insect38_crop.jpg,3,18,1.0,172.0,--,--,999.0,18.0,DON'T EAT                                    EAT,3177.5447,3169.4878,3118.5173
174,0,False,right,avoid,neg,fungus39_crop.jpg,3,18,1.0,173.0,1,3180.1018,999.0,18.0,DON'T EAT                                    EAT,3179.563,3169.4878,3118.5173
175,0,False,right,avoid,neg,fungus34_crop.jpg,3,18,1.0,174.0,1,3182.2234,999.0,18.0,DON'T EAT                                    EAT,3181.5813,3169.4878,3118.5173
176,0,False,right,avoid,neg,fungus24_crop.jpg,3,18,1.0,175.0,1,3184.1387,999.0,18.0,DON'T EAT                                    EAT,3183.5996,3169.4878,3118.5173
177,0,False,right,avoid,neg,fungus14_crop.jpg,3,18,1.0,176.0,1,3186.0625,999.0,18.0,DON'T EAT                                    EAT,3185.618,3169.4878,3118.5173
178,0,False,right,avoid,neg,fungus11_crop.jpg,3,18,1.0,177.0,1,3188.0273,999.0,18.0,DON'T EAT                                    EAT,3187.6365,3169.4878,3118.5173
179,0,False,right,avoid,neg,fungus1_crop.jpg,3,18,1.0,178.0,1,3190.0674,999.0,18.0,DON'T EAT                                    EAT,3189.6545,3169.4878,3118.5173
180,0,True,right,approach,pos,cake32_crop.jpg,3,18,1.0,179.0,1,3192.1155,999.0,18.0,DON'T EAT                                    EAT,3191.6729,3169.4878,3118.5173
181,1,False,left,approach,pos,cake29_crop.jpg,3,19,1.0,180.0,1,3209.7715,999.0,19.0,DON'T EAT                                    EAT,3209.2874,3205.2676,3118.5173
182,1,False,left,approach,pos,cake32_crop.jpg,3,19,1.0,181.0,--,--,999.0,19.0,DON'T EAT                                    EAT,3211.306,3205.2676,3118.5173
183,1,False,left,approach,pos,cake23_crop.jpg,3,19,1.0,182.0,--,--,999.0,19.0,DON'T EAT                                    EAT,3213.324,3205.2676,3118.5173
184,1,False,left,approach,pos,cake18_crop.jpg,3,19,1.0,183.0,--,--,999.0,19.0,DON'T EAT                                    EAT,3215.3425,3205.2676,3118.5173
185,1,False,left,approach,pos,cake3_crop.jpg,3,19,1.0,184.0,--,--,999.0,19.0,DON'T EAT                                    EAT,3217.3608,3205.2676,3118.5173
186,1,False,left,approach,pos,cake26_crop.jpg,3,19,1.0,185.0,--,--,999.0,19.0,DON'T EAT                                    EAT,3219.3792,3205.2676,3118.5173
187,1,False,left,approach,pos,cake33_crop.jpg,3,19,1.0,186.0,--,--,999.0,19.0,DON'T EAT                                    EAT,3221.3977,3205.2676,3118.5173
188,1,False,left,approach,pos,cake2_crop.jpg,3,19,1.0,187.0,--,--,999.0,19.0,DON'T EAT                                    EAT,3223.416,3205.2676,3118.5173
189,1,True,left,avoid,neg,fungus28_crop.jpg,3,19,1.0,188.0,1,3226.2627,999.0,19.0,DON'T EAT                                    EAT,3225.4343,3205.2676,3118.5173
190,1,True,left,avoid,pos,meat22_crop.jpg,3,19,1.0,189.0,--,--,999.0,19.0,DON'T EAT                                    EAT,3227.4526,3205.2676,3118.5173
191,2,False,right,approach,pos,cake28_crop.jpg,3,20,1.0,190.0,--,--,999.0,20.0,DON'T EAT                                    EAT,3246.3352,3242.3152,3118.5173
192,2,False,right,approach,pos,cake26_crop.jpg,3,20,1.0,191.0,--,--,999.0,20.0,DON'T EAT                                    EAT,3248.3533,3242.3152,3118.5173
193,2,False,right,approach,pos,cake11_crop.jpg,3,20,1.0,192.0,--,--,999.0,20.0,DON'T EAT                                    EAT,3250.3716,3242.3152,3118.5173
194,2,True,right,avoid,neg,fungus22_crop.jpg,3,20,1.0,193.0,1,3253.0217,999.0,20.0,DON'T EAT                                    EAT,3252.3901,3242.3152,3118.5173
195,2,True,right,avoid,pos,meat8_crop.jpg,3,20,1.0,194.0,1,3255.116,999.0,20.0,DON'T EAT                                    EAT,3254.4082,3242.3152,3118.5173
196,2,False,right,approach,pos,cake27_crop.jpg,3,20,1.0,195.0,1,3256.8794,999.0,20.0,DON'T EAT                                    EAT,3256.4265,3242.3152,3118.5173
197,2,False,right,approach,pos,cake16_crop.jpg,3,20,1.0,196.0,--,--,999.0,20.0,DON'T EAT                                    EAT,3258.445,3242.3152,3118.5173
198,2,False,right,approach,pos,cake30_crop.jpg,3,20,1.0,197.0,--,--,999.0,20.0,DON'T EAT                                    EAT,3260.463,3242.3152,3118.5173
199,2,False,right,approach,pos,cake6_crop.jpg,3,20,1.0,198.0,--,--,999.0,20.0,DON'T EAT                                    EAT,3262.4817,3242.3152,3118.5173
200,2,False,right,approach,pos,cake36_crop.jpg,3,20,1.0,199.0,--,--,999.0,20.0,DON'T EAT                                    EAT,3264.5,3242.3152,3118.5173
201,3,False,left,avoid,pos,meat34_crop.jpg,3,21,1.0,200.0,1,3282.2695,999.0,21.0,DON'T EAT                                    EAT,3281.481,3277.461,3118.5173
202,3,False,left,avoid,pos,meat23_crop.jpg,3,21,1.0,201.0,1,3284.4048,999.0,21.0,DON'T EAT                                    EAT,3283.4993,3277.461,3118.5173
203,3,False,left,avoid,pos,meat32_crop.jpg,3,21,1.0,202.0,1,3286.0127,999.0,21.0,DON'T EAT                                    EAT,3285.5176,3277.461,3118.5173
204,3,True,left,approach,pos,cake12_crop.jpg,3,21,1.0,203.0,--,--,999.0,21.0,DON'T EAT                                    EAT,3287.536,3277.461,3118.5173
205,3,False,left,avoid,pos,meat3_crop.jpg,3,21,1.0,204.0,1,3290.0625,999.0,21.0,DON'T EAT                                    EAT,3289.5544,3277.461,3118.5173
206,3,False,left,avoid,pos,meat27_crop.jpg,3,21,1.0,205.0,1,3292.3542,999.0,21.0,DON'T EAT                                    EAT,3291.5728,3277.461,3118.5173
207,3,False,left,avoid,pos,meat24_crop.jpg,3,21,1.0,206.0,1,3294.0972,999.0,21.0,DON'T EAT                                    EAT,3293.591,3277.461,3118.5173
208,3,False,left,avoid,pos,meat1_crop.jpg,3,21,1.0,207.0,1,3296.2253,999.0,21.0,DON'T EAT                                    EAT,3295.6094,3277.461,3118.5173
209,3,True,left,approach,neg,insect29_crop.jpg,3,21,1.0,208.0,1,3298.081,999.0,21.0,DON'T EAT                                    EAT,3297.6277,3277.461,3118.5173
210,3,False,left,avoid,pos,meat35_crop.jpg,3,21,1.0,209.0,1,3300.163,999.0,21.0,DON'T EAT                                    EAT,3299.646,3277.461,3118.5173
211,0,False,left,approach,neg,insect40_crop.jpg,3,22,1.0,210.0,--,--,999.0,22.0,DON'T EAT                                    EAT,3317.5776,3313.5576,3118.5173
212,0,False,left,approach,neg,insect17_crop.jpg,3,22,1.0,211.0,--,--,999.0,22.0,DON'T EAT                                    EAT,3319.596,3313.5576,3118.5173
213,0,False,left,approach,neg,insect14_crop.jpg,3,22,1.0,212.0,--,--,999.0,22.0,DON'T EAT                                    EAT,3321.6143,3313.5576,3118.5173
214,0,True,left,avoid,pos,meat13_crop.jpg,3,22,1.0,213.0,1,3324.1714,999.0,22.0,DON'T EAT                                    EAT,3323.6326,3313.5576,3118.5173
215,0,False,left,approach,neg,insect1_crop.jpg,3,22,1.0,214.0,--,--,999.0,22.0,DON'T EAT                                    EAT,3325.651,3313.5576,3118.5173
216,0,True,left,avoid,neg,fungus20_crop.jpg,3,22,1.0,215.0,1,3328.1743,999.0,22.0,DON'T EAT                                    EAT,3327.6692,3313.5576,3118.5173
217,0,False,left,approach,neg,insect10_crop.jpg,3,22,1.0,216.0,--,--,999.0,22.0,DON'T EAT                                    EAT,3329.6877,3313.5576,3118.5173
218,0,False,left,approach,neg,insect7_crop.jpg,3,22,1.0,217.0,--,--,999.0,22.0,DON'T EAT                                    EAT,3331.706,3313.5576,3118.5173
219,0,False,left,approach,neg,insect38_crop.jpg,3,22,1.0,218.0,--,--,999.0,22.0,DON'T EAT                                    EAT,3333.7244,3313.5576,3118.5173
220,0,False,left,approach,neg,insect26_crop.jpg,3,22,1.0,219.0,--,--,999.0,22.0,DON'T EAT                                    EAT,3335.7427,3313.5576,3118.5173
221,2,True,left,avoid,pos,meat10_crop.jpg,3,23,1.0,220.0,1,3354.8694,999.0,23.0,DON'T EAT                                    EAT,3354.1748,3350.1545,3118.5173
222,2,False,left,approach,neg,insect36_crop.jpg,3,23,1.0,221.0,--,--,999.0,23.0,DON'T EAT                                    EAT,3356.1926,3350.1545,3118.5173
223,2,False,left,approach,neg,insect23_crop.jpg,3,23,1.0,222.0,--,--,999.0,23.0,DON'T EAT                                    EAT,3358.2114,3350.1545,3118.5173
224,2,False,left,approach,neg,insect13_crop.jpg,3,23,1.0,223.0,--,--,999.0,23.0,DON'T EAT                                    EAT,3360.23,3350.1545,3118.5173
225,2,False,left,approach,neg,insect34_crop.jpg,3,23,1.0,224.0,--,--,999.0,23.0,DON'T EAT                                    EAT,3362.2483,3350.1545,3118.5173
226,2,False,left,approach,neg,insect5_crop.jpg,3,23,1.0,225.0,--,--,999.0,23.0,DON'T EAT                                    EAT,3364.2664,3350.1545,3118.5173
227,2,False,left,approach,neg,insect22_crop.jpg,3,23,1.0,226.0,--,--,999.0,23.0,DON'T EAT                                    EAT,3366.2842,3350.1545,3118.5173
228,2,False,left,approach,neg,insect6_crop.jpg,3,23,1.0,227.0,--,--,999.0,23.0,DON'T EAT                                    EAT,3368.303,3350.1545,3118.5173
229,2,True,left,avoid,neg,fungus7_crop.jpg,3,23,1.0,228.0,1,3371.1455,999.0,23.0,DON'T EAT                                    EAT,3370.3213,3350.1545,3118.5173
230,2,False,left,approach,neg,insect18_crop.jpg,3,23,1.0,229.0,1,3372.8142,999.0,23.0,DON'T EAT                                    EAT,3372.3398,3350.1545,3118.5173
231,3,False,left,approach,pos,cake10_crop.jpg,3,24,1.0,230.0,--,--,999.0,24.0,DON'T EAT                                    EAT,3391.8892,3387.8694,3118.5173
232,3,False,left,approach,pos,cake17_crop.jpg,3,24,1.0,231.0,--,--,999.0,24.0,DON'T EAT                                    EAT,3393.9077,3387.8694,3118.5173
233,3,False,left,approach,pos,cake27_crop.jpg,3,24,1.0,232.0,--,--,999.0,24.0,DON'T EAT                                    EAT,3395.9263,3387.8694,3118.5173
234,3,True,left,avoid,neg,fungus17_crop.jpg,3,24,1.0,233.0,1,3398.598,999.0,24.0,DON'T EAT                                    EAT,3397.9443,3387.8694,3118.5173
235,3,False,left,approach,pos,cake28_crop.jpg,3,24,1.0,234.0,--,--,999.0,24.0,DON'T EAT                                    EAT,3399.9626,3387.8694,3118.5173
236,3,True,left,avoid,pos,meat6_crop.jpg,3,24,1.0,235.0,1,3402.6125,999.0,24.0,DON'T EAT                                    EAT,3401.9812,3387.8694,3118.5173
237,3,False,left,approach,pos,cake39_crop.jpg,3,24,1.0,236.0,--,--,999.0,24.0,DON'T EAT                                    EAT,3403.9995,3387.8694,3118.5173
238,3,False,left,approach,pos,cake19_crop.jpg,3,24,1.0,237.0,--,--,999.0,24.0,DON'T EAT                                    EAT,3406.0178,3387.8694,3118.5173
239,3,False,left,approach,pos,cake21_crop.jpg,3,24,1.0,238.0,--,--,999.0,24.0,DON'T EAT                                    EAT,3408.0364,3387.8694,3118.5173
240,3,False,left,approach,pos,cake14_crop.jpg,3,24,1.0,239.0,--,--,999.0,24.0,DON'T EAT                                    EAT,3410.0547,3387.8694,3118.5173
241,0,False,left,avoid,neg,fungus40_crop.jpg,4,25,1.0,240.0,1,3520.1782,999.0,25.0,DON'T EAT                                    EAT,3519.5786,3515.5588,3505.3887
242,0,False,left,avoid,neg,fungus38_crop.jpg,4,25,1.0,241.0,1,3522.1428,999.0,25.0,DON'T EAT                                    EAT,3521.5972,3515.5588,3505.3887
243,0,False,left,avoid,neg,fungus30_crop.jpg,4,25,1.0,242.0,1,3523.9836,999.0,25.0,DON'T EAT                                    EAT,3523.6157,3515.5588,3505.3887
244,0,False,left,avoid,neg,fungus5_crop.jpg,4,25,1.0,243.0,1,3526.0571,999.0,25.0,DON'T EAT                                    EAT,3525.6338,3515.5588,3505.3887
245,0,False,left,avoid,neg,fungus37_crop.jpg,4,25,1.0,244.0,1,3528.093,999.0,25.0,DON'T EAT                                    EAT,3527.6523,3515.5588,3505.3887
246,0,True,left,approach,neg,insect39_crop.jpg,4,25,1.0,245.0,--,--,999.0,25.0,DON'T EAT                                    EAT,3529.6707,3515.5588,3505.3887
247,0,False,left,avoid,neg,fungus3_crop.jpg,4,25,1.0,246.0,1,3532.1729,999.0,25.0,DON'T EAT                                    EAT,3531.689,3515.5588,3505.3887
248,0,False,left,avoid,neg,fungus25_crop.jpg,4,25,1.0,247.0,1,3534.172,999.0,25.0,DON'T EAT                                    EAT,3533.7073,3515.5588,3505.3887
249,0,False,left,avoid,neg,fungus1_crop.jpg,4,25,1.0,248.0,1,3536.2747,999.0,25.0,DON'T EAT                                    EAT,3535.7256,3515.5588,3505.3887
250,0,True,left,approach,pos,cake4_crop.jpg,4,25,1.0,249.0,--,--,999.0,25.0,DON'T EAT                                    EAT,3537.7441,3515.5588,3505.3887
251,2,False,right,approach,neg,insect22_crop.jpg,4,26,1.0,250.0,--,--,999.0,26.0,DON'T EAT                                    EAT,3555.4587,3551.4387,3505.3887
252,2,False,right,approach,neg,insect37_crop.jpg,4,26,1.0,251.0,--,--,999.0,26.0,DON'T EAT                                    EAT,3557.4768,3551.4387,3505.3887
253,2,False,right,approach,neg,insect27_crop.jpg,4,26,1.0,252.0,--,--,999.0,26.0,DON'T EAT                                    EAT,3559.4954,3551.4387,3505.3887
254,2,False,right,approach,neg,insect28_crop.jpg,4,26,1.0,253.0,--,--,999.0,26.0,DON'T EAT                                    EAT,3561.514,3551.4387,3505.3887
255,2,False,right,approach,neg,insect13_crop.jpg,4,26,1.0,254.0,--,--,999.0,26.0,DON'T EAT                                    EAT,3563.532,3551.4387,3505.3887
256,2,False,right,approach,neg,insect15_crop.jpg,4,26,1.0,255.0,--,--,999.0,26.0,DON'T EAT                                    EAT,3565.5505,3551.4387,3505.3887
257,2,True,right,avoid,neg,fungus10_crop.jpg,4,26,1.0,256.0,1,3568.0964,999.0,26.0,DON'T EAT                                    EAT,3567.5688,3551.4387,3505.3887
258,2,False,right,approach,neg,insect31_crop.jpg,4,26,1.0,257.0,--,--,999.0,26.0,DON'T EAT                                    EAT,3569.587,3551.4387,3505.3887
259,2,True,right,avoid,pos,meat25_crop.jpg,4,26,1.0,258.0,1,3572.2883,999.0,26.0,DON'T EAT                                    EAT,3571.6055,3551.4387,3505.3887
260,2,False,right,approach,neg,insect19_crop.jpg,4,26,1.0,259.0,--,--,999.0,26.0,DON'T EAT                                    EAT,3573.6238,3551.4387,3505.3887
261,3,False,left,approach,neg,insect12_crop.jpg,4,27,1.0,260.0,--,--,999.0,27.0,DON'T EAT                                    EAT,3593.5068,3589.4868,3505.3887
262,3,True,left,avoid,neg,fungus13_crop.jpg,4,27,1.0,261.0,1,3596.1382,999.0,27.0,DON'T EAT                                    EAT,3595.5254,3589.4868,3505.3887
263,3,False,left,approach,neg,insect33_crop.jpg,4,27,1.0,262.0,--,--,999.0,27.0,DON'T EAT                                    EAT,3597.544,3589.4868,3505.3887
264,3,False,left,approach,neg,insect4_crop.jpg,4,27,1.0,263.0,--,--,999.0,27.0,DON'T EAT                                    EAT,3599.562,3589.4868,3505.3887
265,3,False,left,approach,neg,insect2_crop.jpg,4,27,1.0,264.0,--,--,999.0,27.0,DON'T EAT                                    EAT,3601.5803,3589.4868,3505.3887
266,3,False,left,approach,neg,insect16_crop.jpg,4,27,1.0,265.0,--,--,999.0,27.0,DON'T EAT                                    EAT,3603.5986,3589.4868,3505.3887
267,3,False,left,approach,neg,insect11_crop.jpg,4,27,1.0,266.0,--,--,999.0,27.0,DON'T EAT                                    EAT,3605.6167,3589.4868,3505.3887
268,3,False,left,approach,neg,insect28_crop.jpg,4,27,1.0,267.0,--,--,999.0,27.0,DON'T EAT                                    EAT,3607.6355,3589.4868,3505.3887
269,3,True,left,avoid,pos,meat8_crop.jpg,4,27,1.0,268.0,1,3610.4421,999.0,27.0,DON'T EAT                                    EAT,3609.6538,3589.4868,3505.3887
270,3,False,left,approach,neg,insect32_crop.jpg,4,27,1.0,269.0,--,--,999.0,27.0,DON'T EAT                                    EAT,3611.672,3589.4868,3505.3887
271,0,True,left,avoid,neg,fungus24_crop.jpg,4,28,1.0,270.0,1,3631.0862,999.0,28.0,DON'T EAT                                    EAT,3630.171,3626.1506,3505.3887
272,0,False,left,approach,pos,cake8_crop.jpg,4,28,1.0,271.0,--,--,999.0,28.0,DON'T EAT                                    EAT,3632.1892,3626.1506,3505.3887
273,0,False,left,approach,pos,cake38_crop.jpg,4,28,1.0,272.0,--,--,999.0,28.0,DON'T EAT                                    EAT,3634.2075,3626.1506,3505.3887
274,0,False,left,approach,pos,cake40_crop.jpg,4,28,1.0,273.0,--,--,999.0,28.0,DON'T EAT                                    EAT,3636.2258,3626.1506,3505.3887
275,0,False,left,approach,pos,cake13_crop.jpg,4,28,1.0,274.0,--,--,999.0,28.0,DON'T EAT                                    EAT,3638.2444,3626.1506,3505.3887
276,0,False,left,approach,pos,cake1_crop.jpg,4,28,1.0,275.0,--,--,999.0,28.0,DON'T EAT                                    EAT,3640.2622,3626.1506,3505.3887
277,0,False,left,approach,pos,cake15_crop.jpg,4,28,1.0,276.0,--,--,999.0,28.0,DON'T EAT                                    EAT,3642.281,3626.1506,3505.3887
278,0,False,left,approach,pos,cake30_crop.jpg,4,28,1.0,277.0,--,--,999.0,28.0,DON'T EAT                                    EAT,3644.2993,3626.1506,3505.3887
279,0,False,left,approach,pos,cake7_crop.jpg,4,28,1.0,278.0,--,--,999.0,28.0,DON'T EAT                                    EAT,3646.3174,3626.1506,3505.3887
280,0,True,left,avoid,pos,meat40_crop.jpg,4,28,1.0,279.0,1,3649.0608,999.0,28.0,DON'T EAT                                    EAT,3648.3354,3626.1506,3505.3887
281,0,False,right,approach,pos,cake34_crop.jpg,4,29,1.0,280.0,1,3667.7603,999.0,29.0,DON'T EAT                                    EAT,3667.0015,3662.9814,3505.3887
282,0,False,right,approach,pos,cake10_crop.jpg,4,29,1.0,281.0,--,--,999.0,29.0,DON'T EAT                                    EAT,3669.0198,3662.9814,3505.3887
283,0,True,right,avoid,pos,meat23_crop.jpg,4,29,1.0,282.0,1,3671.7139,999.0,29.0,DON'T EAT                                    EAT,3671.038,3662.9814,3505.3887
284,0,False,right,approach,pos,cake1_crop.jpg,4,29,1.0,283.0,--,--,999.0,29.0,DON'T EAT                                    EAT,3673.0566,3662.9814,3505.3887
285,0,False,right,approach,pos,cake9_crop.jpg,4,29,1.0,284.0,--,--,999.0,29.0,DON'T EAT                                    EAT,3675.075,3662.9814,3505.3887
286,0,False,right,approach,pos,cake40_crop.jpg,4,29,1.0,285.0,--,--,999.0,29.0,DON'T EAT                                    EAT,3677.0933,3662.9814,3505.3887
287,0,False,right,approach,pos,cake33_crop.jpg,4,29,1.0,286.0,--,--,999.0,29.0,DON'T EAT                                    EAT,3679.1116,3662.9814,3505.3887
288,0,True,right,avoid,neg,fungus25_crop.jpg,4,29,1.0,287.0,1,3681.8074,999.0,29.0,DON'T EAT                                    EAT,3681.13,3662.9814,3505.3887
289,0,False,right,approach,pos,cake7_crop.jpg,4,29,1.0,288.0,--,--,999.0,29.0,DON'T EAT                                    EAT,3683.1482,3662.9814,3505.3887
290,0,False,right,approach,pos,cake29_crop.jpg,4,29,1.0,289.0,1,3686.0923,999.0,29.0,DON'T EAT                                    EAT,3685.1667,3662.9814,3505.3887
291,1,False,left,approach,neg,insect20_crop.jpg,4,30,1.0,290.0,3,3703.4316,999.0,30.0,DON'T EAT                                    EAT,3702.4307,3698.411,3505.3887
292,1,False,left,approach,neg,insect19_crop.jpg,4,30,1.0,291.0,3,3704.8071,999.0,30.0,DON'T EAT                                    EAT,3704.4492,3698.411,3505.3887
293,1,True,left,avoid,pos,meat37_crop.jpg,4,30,1.0,292.0,1,3707.0107,999.0,30.0,DON'T EAT                                    EAT,3706.467,3698.411,3505.3887
294,1,False,left,approach,neg,insect35_crop.jpg,4,30,1.0,293.0,--,--,999.0,30.0,DON'T EAT                                    EAT,3708.486,3698.411,3505.3887
295,1,False,left,approach,neg,insect9_crop.jpg,4,30,1.0,294.0,--,--,999.0,30.0,DON'T EAT                                    EAT,3710.5044,3698.411,3505.3887
296,1,False,left,approach,neg,insect3_crop.jpg,4,30,1.0,295.0,--,--,999.0,30.0,DON'T EAT                                    EAT,3712.5227,3698.411,3505.3887
297,1,True,left,avoid,neg,fungus4_crop.jpg,4,30,1.0,296.0,1,3715.121,999.0,30.0,DON'T EAT                                    EAT,3714.541,3698.411,3505.3887
298,1,False,left,approach,neg,insect24_crop.jpg,4,30,1.0,297.0,--,--,999.0,30.0,DON'T EAT                                    EAT,3716.5588,3698.411,3505.3887
299,1,False,left,approach,neg,insect37_crop.jpg,4,30,1.0,298.0,--,--,999.0,30.0,DON'T EAT                                    EAT,3718.5776,3698.411,3505.3887
300,1,False,left,approach,neg,insect31_crop.jpg,4,30,1.0,299.0,--,--,999.0,30.0,DON'T EAT                                    EAT,3720.5962,3698.411,3505.3887
301,0,False,left,avoid,pos,meat25_crop.jpg,4,31,1.0,300.0,1,3739.6875,999.0,31.0,DON'T EAT                                    EAT,3738.6946,3734.6743,3505.3887
302,0,False,left,avoid,pos,meat29_crop.jpg,4,31,1.0,301.0,1,3741.5999,999.0,31.0,DON'T EAT                                    EAT,3740.7126,3734.6743,3505.3887
303,0,False,left,avoid,pos,meat12_crop.jpg,4,31,1.0,302.0,1,3743.2173,999.0,31.0,DON'T EAT                                    EAT,3742.7312,3734.6743,3505.3887
304,0,False,left,avoid,pos,meat4_crop.jpg,4,31,1.0,303.0,1,3745.0728,999.0,31.0,DON'T EAT                                    EAT,3744.749,3734.6743,3505.3887
305,0,False,left,avoid,pos,meat2_crop.jpg,4,31,1.0,304.0,1,3747.2424,999.0,31.0,DON'T EAT                                    EAT,3746.7673,3734.6743,3505.3887
306,0,True,left,approach,pos,cake9_crop.jpg,4,31,1.0,305.0,1,3749.177,999.0,31.0,DON'T EAT                                    EAT,3748.7861,3734.6743,3505.3887
307,0,False,left,avoid,pos,meat7_crop.jpg,4,31,1.0,306.0,1,3751.4597,999.0,31.0,DON'T EAT                                    EAT,3750.8044,3734.6743,3505.3887
308,0,False,left,avoid,pos,meat30_crop.jpg,4,31,1.0,307.0,1,3753.434,999.0,31.0,DON'T EAT                                    EAT,3752.8228,3734.6743,3505.3887
309,0,False,left,avoid,pos,meat16_crop.jpg,4,31,1.0,308.0,1,3755.2422,999.0,31.0,DON'T EAT                                    EAT,3754.8413,3734.6743,3505.3887
310,0,True,left,approach,neg,insect25_crop.jpg,4,31,1.0,309.0,1,3757.6196,999.0,31.0,DON'T EAT                                    EAT,3756.8594,3734.6743,3505.3887
311,0,False,right,avoid,pos,meat1_crop.jpg,4,32,1.0,310.0,1,3776.6733,999.0,32.0,DON'T EAT                                    EAT,3775.9753,3771.9556,3505.3887
312,0,False,right,avoid,pos,meat2_crop.jpg,4,32,1.0,311.0,1,3778.5432,999.0,32.0,DON'T EAT                                    EAT,3777.994,3771.9556,3505.3887
313,0,False,right,avoid,pos,meat5_crop.jpg,4,32,1.0,312.0,1,3780.4417,999.0,32.0,DON'T EAT                                    EAT,3780.0122,3771.9556,3505.3887
314,0,True,right,approach,pos,cake12_crop.jpg,4,32,1.0,313.0,--,--,999.0,32.0,DON'T EAT                                    EAT,3782.0303,3771.9556,3505.3887
315,0,False,right,avoid,pos,meat28_crop.jpg,4,32,1.0,314.0,1,3784.491,999.0,32.0,DON'T EAT                                    EAT,3784.0488,3771.9556,3505.3887
316,0,False,right,avoid,pos,meat36_crop.jpg,4,32,1.0,315.0,1,3786.6587,999.0,32.0,DON'T EAT                                    EAT,3786.067,3771.9556,3505.3887
317,0,True,right,approach,neg,insect17_crop.jpg,4,32,1.0,316.0,1,3788.612,999.0,32.0,DON'T EAT                                    EAT,3788.0854,3771.9556,3505.3887
318,0,False,right,avoid,pos,meat34_crop.jpg,4,32,1.0,317.0,1,3790.6414,999.0,32.0,DON'T EAT                                    EAT,3790.1038,3771.9556,3505.3887
319,0,False,right,avoid,pos,meat17_crop.jpg,4,32,1.0,318.0,1,3792.6184,999.0,32.0,DON'T EAT                                    EAT,3792.122,3771.9556,3505.3887
320,0,False,right,avoid,pos,meat38_crop.jpg,4,32,1.0,319.0,1,3794.5718,999.0,32.0,DON'T EAT                                    EAT,3794.1404,3771.9556,3505.3887
