subject,trial_number,n_block,catch,hand,mot,val,stim_name,run_number,num_block,ran,order,subject_number,left_side_resp_label,trial_onset,blk_instr_onset,baseline_onset,response,time_of_response,response_hand,response_cleaned,response_lat,response_lat_cleaned,response_meaning,response_meaning_cleaned,condition_mot,condition_val,condition,correct,correct_cleaned,rt
sub-020,1,1,FALSE,right,avoid,neg,fungus21_crop.jpg,1,1,TRUE,0,20,EAT                                    DON'T EAT,2161.9575,2157.938,2144.0488,--,NA,right,2,NA,right,no_response,not_eat,avoid,neg,avoid-neg,NA,1,NA
sub-020,2,1,FALSE,right,avoid,neg,fungus26_crop.jpg,1,1,TRUE,1,20,EAT                                    DON'T EAT,2163.976,2157.938,2144.0488,--,NA,right,2,NA,right,no_response,not_eat,avoid,neg,avoid-neg,NA,1,NA
sub-020,3,1,TRUE,right,approach,neg,insect5_crop.jpg,1,1,TRUE,2,20,EAT                                    DON'T EAT,2165.9949,2157.938,2144.0488,1,2166.7185,right,1,left,left,eat,eat,avoid,neg,avoid-neg,1,1,723.5999999996275
sub-020,4,1,TRUE,right,approach,pos,cake40_crop.jpg,1,1,TRUE,3,20,EAT                                    DON'T EAT,2168.0166,2157.938,2144.0488,1,2169.0093,right,1,left,left,eat,eat,avoid,neg,avoid-neg,1,1,992.7000000001863
sub-020,5,1,FALSE,right,avoid,neg,fungus39_crop.jpg,1,1,TRUE,4,20,EAT                                    DON'T EAT,2170.0332,2157.938,2144.0488,--,NA,right,2,NA,right,no_response,not_eat,avoid,neg,avoid-neg,NA,1,NA
sub-020,6,1,FALSE,right,avoid,neg,fungus28_crop.jpg,1,1,TRUE,5,20,EAT                                    DON'T EAT,2172.0493,2157.938,2144.0488,--,NA,right,2,NA,right,no_response,not_eat,avoid,neg,avoid-neg,NA,1,NA
sub-020,7,1,FALSE,right,avoid,neg,fungus20_crop.jpg,1,1,TRUE,6,20,EAT                                    DON'T EAT,2174.068,2157.938,2144.0488,--,NA,right,2,NA,right,no_response,not_eat,avoid,neg,avoid-neg,NA,1,NA
sub-020,8,1,FALSE,right,avoid,neg,fungus18_crop.jpg,1,1,TRUE,7,20,EAT                                    DON'T EAT,2176.0862,2157.938,2144.0488,--,NA,right,2,NA,right,no_response,not_eat,avoid,neg,avoid-neg,NA,1,NA
sub-020,9,1,FALSE,right,avoid,neg,fungus8_crop.jpg,1,1,TRUE,8,20,EAT                                    DON'T EAT,2178.1045,2157.938,2144.0488,--,NA,right,2,NA,right,no_response,not_eat,avoid,neg,avoid-neg,NA,1,NA
sub-020,10,1,FALSE,right,avoid,neg,fungus6_crop.jpg,1,1,TRUE,9,20,EAT                                    DON'T EAT,2180.1233,2157.938,2144.0488,--,NA,right,2,NA,right,no_response,not_eat,avoid,neg,avoid-neg,NA,1,NA
sub-020,11,1,FALSE,right,approach,pos,cake25_crop.jpg,1,2,TRUE,10,20,EAT                                    DON'T EAT,2196.4363,2192.4329,2144.0488,1,2197.8545,right,1,left,left,eat,eat,approach,pos,approach-pos,1,1,1418.2000000001863
sub-020,12,1,FALSE,right,approach,pos,cake34_crop.jpg,1,2,TRUE,11,20,EAT                                    DON'T EAT,2198.455,2192.4329,2144.0488,1,2199.97,right,1,left,left,eat,eat,approach,pos,approach-pos,1,1,1515
sub-020,13,1,FALSE,right,approach,pos,cake30_crop.jpg,1,2,TRUE,12,20,EAT                                    DON'T EAT,2200.4734,2192.4329,2144.0488,1,2201.4038,right,1,left,left,eat,eat,approach,pos,approach-pos,1,1,930.3999999999069
sub-020,14,1,FALSE,right,approach,pos,cake36_crop.jpg,1,2,TRUE,13,20,EAT                                    DON'T EAT,2202.4917,2192.4329,2144.0488,1,2203.1155,right,1,left,left,eat,eat,approach,pos,approach-pos,1,1,623.7999999998137
sub-020,15,1,FALSE,right,approach,pos,cake17_crop.jpg,1,2,TRUE,14,20,EAT                                    DON'T EAT,2204.51,2192.4329,2144.0488,1,2205.008,right,1,left,left,eat,eat,approach,pos,approach-pos,1,1,498
sub-020,16,1,TRUE,right,avoid,neg,fungus35_crop.jpg,1,2,TRUE,15,20,EAT                                    DON'T EAT,2206.5283,2192.4329,2144.0488,--,NA,right,2,NA,right,no_response,not_eat,approach,pos,approach-pos,NA,1,NA
sub-020,17,1,FALSE,right,approach,pos,cake7_crop.jpg,1,2,TRUE,16,20,EAT                                    DON'T EAT,2208.5469,2192.4329,2144.0488,1,2209.365,right,1,left,left,eat,eat,approach,pos,approach-pos,1,1,818.1000000000931
sub-020,18,1,TRUE,right,avoid,pos,meat16_crop.jpg,1,2,TRUE,17,20,EAT                                    DON'T EAT,2210.565,2192.4329,2144.0488,--,NA,right,2,NA,right,no_response,not_eat,approach,pos,approach-pos,NA,1,NA
sub-020,19,1,FALSE,right,approach,pos,cake13_crop.jpg,1,2,TRUE,18,20,EAT                                    DON'T EAT,2212.5835,2192.4329,2144.0488,1,2213.6238,right,1,left,left,eat,eat,approach,pos,approach-pos,1,1,1040.2999999998137
sub-020,20,1,FALSE,right,approach,pos,cake3_crop.jpg,1,2,TRUE,19,20,EAT                                    DON'T EAT,2214.6018,2192.4329,2144.0488,1,2215.269,right,1,left,left,eat,eat,approach,pos,approach-pos,1,1,667.2000000001863
sub-020,21,1,TRUE,left,approach,pos,cake36_crop.jpg,1,3,TRUE,20,20,EAT                                    DON'T EAT,2231.7158,2227.696,2144.0488,1,2232.371,right,1,left,left,eat,eat,avoid,pos,avoid-pos,1,1,655.2000000001863
sub-020,22,1,TRUE,left,approach,neg,insect13_crop.jpg,1,3,TRUE,21,20,EAT                                    DON'T EAT,2233.7344,2227.696,2144.0488,1,2234.6873,right,1,left,left,eat,eat,avoid,pos,avoid-pos,1,1,952.9000000003725
sub-020,23,1,FALSE,left,avoid,pos,meat15_crop.jpg,1,3,TRUE,22,20,EAT                                    DON'T EAT,2235.7527,2227.696,2144.0488,1,2237.092,right,1,left,left,eat,eat,avoid,pos,avoid-pos,0,0,1339.2999999998137
sub-020,24,1,FALSE,left,avoid,pos,meat27_crop.jpg,1,3,TRUE,23,20,EAT                                    DON'T EAT,2237.7712,2227.696,2144.0488,--,NA,right,2,NA,right,no_response,not_eat,avoid,pos,avoid-pos,NA,1,NA
sub-020,25,1,FALSE,left,avoid,pos,meat31_crop.jpg,1,3,TRUE,24,20,EAT                                    DON'T EAT,2239.7893,2227.696,2144.0488,--,NA,right,2,NA,right,no_response,not_eat,avoid,pos,avoid-pos,NA,1,NA
sub-020,26,1,FALSE,left,avoid,pos,meat32_crop.jpg,1,3,TRUE,25,20,EAT                                    DON'T EAT,2241.8071,2227.696,2144.0488,--,NA,right,2,NA,right,no_response,not_eat,avoid,pos,avoid-pos,NA,1,NA
sub-020,27,1,FALSE,left,avoid,pos,meat13_crop.jpg,1,3,TRUE,26,20,EAT                                    DON'T EAT,2243.8262,2227.696,2144.0488,--,NA,right,2,NA,right,no_response,not_eat,avoid,pos,avoid-pos,NA,1,NA
sub-020,28,1,FALSE,left,avoid,pos,meat28_crop.jpg,1,3,TRUE,27,20,EAT                                    DON'T EAT,2245.8445,2227.696,2144.0488,--,NA,right,2,NA,right,no_response,not_eat,avoid,pos,avoid-pos,NA,1,NA
sub-020,29,1,FALSE,left,avoid,pos,meat14_crop.jpg,1,3,TRUE,28,20,EAT                                    DON'T EAT,2247.8625,2227.696,2144.0488,--,NA,right,2,NA,right,no_response,not_eat,avoid,pos,avoid-pos,NA,1,NA
sub-020,30,1,FALSE,left,avoid,pos,meat23_crop.jpg,1,3,TRUE,29,20,EAT                                    DON'T EAT,2249.881,2227.696,2144.0488,--,NA,right,2,NA,right,no_response,not_eat,avoid,pos,avoid-pos,NA,1,NA
sub-020,31,3,FALSE,right,approach,pos,cake4_crop.jpg,1,4,TRUE,30,20,EAT                                    DON'T EAT,2269.2305,2265.2102,2144.0488,1,2270.1433,right,1,left,left,eat,eat,approach,pos,approach-pos,1,1,912.8000000002794
sub-020,32,3,FALSE,right,approach,pos,cake21_crop.jpg,1,4,TRUE,31,20,EAT                                    DON'T EAT,2271.2488,2265.2102,2144.0488,1,2271.865,right,1,left,left,eat,eat,approach,pos,approach-pos,1,1,616.2000000001863
sub-020,33,3,FALSE,right,approach,pos,cake26_crop.jpg,1,4,TRUE,32,20,EAT                                    DON'T EAT,2273.267,2265.2102,2144.0488,1,2273.8584,right,1,left,left,eat,eat,approach,pos,approach-pos,1,1,591.3999999999069
sub-020,34,3,FALSE,right,approach,pos,cake37_crop.jpg,1,4,TRUE,33,20,EAT                                    DON'T EAT,2275.2856,2265.2102,2144.0488,1,2275.7502,right,1,left,left,eat,eat,approach,pos,approach-pos,1,1,464.59999999962747
sub-020,35,3,TRUE,right,avoid,pos,meat6_crop.jpg,1,4,TRUE,34,20,EAT                                    DON'T EAT,2277.304,2265.2102,2144.0488,--,NA,right,2,NA,right,no_response,not_eat,approach,pos,approach-pos,NA,1,NA
sub-020,36,3,TRUE,right,avoid,neg,fungus34_crop.jpg,1,4,TRUE,35,20,EAT                                    DON'T EAT,2279.3223,2265.2102,2144.0488,--,NA,right,2,NA,right,no_response,not_eat,approach,pos,approach-pos,NA,1,NA
sub-020,37,3,FALSE,right,approach,pos,cake5_crop.jpg,1,4,TRUE,36,20,EAT                                    DON'T EAT,2281.3408,2265.2102,2144.0488,1,2282.1743,right,1,left,left,eat,eat,approach,pos,approach-pos,1,1,833.5000000004657
sub-020,38,3,FALSE,right,approach,pos,cake12_crop.jpg,1,4,TRUE,37,20,EAT                                    DON'T EAT,2283.359,2265.2102,2144.0488,1,2283.9521,right,1,left,left,eat,eat,approach,pos,approach-pos,1,1,593.1000000000931
sub-020,39,3,FALSE,right,approach,pos,cake15_crop.jpg,1,4,TRUE,38,20,EAT                                    DON'T EAT,2285.3772,2265.2102,2144.0488,1,2285.9568,right,1,left,left,eat,eat,approach,pos,approach-pos,1,1,579.6000000000931
sub-020,40,3,FALSE,right,approach,pos,cake16_crop.jpg,1,4,TRUE,39,20,EAT                                    DON'T EAT,2287.395,2265.2102,2144.0488,1,2287.9055,right,1,left,left,eat,eat,approach,pos,approach-pos,1,1,510.5
sub-020,41,3,FALSE,right,avoid,neg,fungus11_crop.jpg,1,5,TRUE,40,20,EAT                                    DON'T EAT,2307.4294,2303.409,2144.0488,--,NA,right,2,NA,right,no_response,not_eat,avoid,neg,avoid-neg,NA,1,NA
sub-020,42,3,FALSE,right,avoid,neg,fungus17_crop.jpg,1,5,TRUE,41,20,EAT                                    DON'T EAT,2309.4473,2303.409,2144.0488,--,NA,right,2,NA,right,no_response,not_eat,avoid,neg,avoid-neg,NA,1,NA
sub-020,43,3,FALSE,right,avoid,neg,fungus12_crop.jpg,1,5,TRUE,42,20,EAT                                    DON'T EAT,2311.4656,2303.409,2144.0488,--,NA,right,2,NA,right,no_response,not_eat,avoid,neg,avoid-neg,NA,1,NA
sub-020,44,3,FALSE,right,avoid,neg,fungus36_crop.jpg,1,5,TRUE,43,20,EAT                                    DON'T EAT,2313.484,2303.409,2144.0488,--,NA,right,2,NA,right,no_response,not_eat,avoid,neg,avoid-neg,NA,1,NA
sub-020,45,3,FALSE,right,avoid,neg,fungus9_crop.jpg,1,5,TRUE,44,20,EAT                                    DON'T EAT,2315.5022,2303.409,2144.0488,--,NA,right,2,NA,right,no_response,not_eat,avoid,neg,avoid-neg,NA,1,NA
sub-020,46,3,FALSE,right,avoid,neg,fungus3_crop.jpg,1,5,TRUE,45,20,EAT                                    DON'T EAT,2317.5205,2303.409,2144.0488,--,NA,right,2,NA,right,no_response,not_eat,avoid,neg,avoid-neg,NA,1,NA
sub-020,47,3,FALSE,right,avoid,neg,fungus23_crop.jpg,1,5,TRUE,46,20,EAT                                    DON'T EAT,2319.539,2303.409,2144.0488,--,NA,right,2,NA,right,no_response,not_eat,avoid,neg,avoid-neg,NA,1,NA
sub-020,48,3,TRUE,right,approach,neg,insect1_crop.jpg,1,5,TRUE,47,20,EAT                                    DON'T EAT,2321.5571,2303.409,2144.0488,1,2322.2634,right,1,left,left,eat,eat,avoid,neg,avoid-neg,1,1,706.2999999998137
sub-020,49,3,FALSE,right,avoid,neg,fungus29_crop.jpg,1,5,TRUE,48,20,EAT                                    DON'T EAT,2323.5757,2303.409,2144.0488,--,NA,right,2,NA,right,no_response,not_eat,avoid,neg,avoid-neg,NA,1,NA
sub-020,50,3,TRUE,right,approach,pos,cake31_crop.jpg,1,5,TRUE,49,20,EAT                                    DON'T EAT,2325.594,2303.409,2144.0488,1,2326.3435,right,1,left,left,eat,eat,avoid,neg,avoid-neg,1,1,749.5
sub-020,51,2,FALSE,right,approach,neg,insect2_crop.jpg,1,6,TRUE,50,20,EAT                                    DON'T EAT,2345.527,2341.507,2144.0488,1,2346.4062,right,1,left,left,eat,eat,approach,neg,approach-neg,1,1,879.1999999997206
sub-020,52,2,FALSE,right,approach,neg,insect26_crop.jpg,1,6,TRUE,51,20,EAT                                    DON'T EAT,2347.5454,2341.507,2144.0488,1,2348.274,right,1,left,left,eat,eat,approach,neg,approach-neg,1,1,728.6000000000931
sub-020,53,2,FALSE,right,approach,neg,insect29_crop.jpg,1,6,TRUE,52,20,EAT                                    DON'T EAT,2349.564,2341.507,2144.0488,1,2350.1338,right,1,left,left,eat,eat,approach,neg,approach-neg,1,1,569.8000000002794
sub-020,54,2,FALSE,right,approach,neg,insect24_crop.jpg,1,6,TRUE,53,20,EAT                                    DON'T EAT,2351.582,2341.507,2144.0488,1,2352.0884,right,1,left,left,eat,eat,approach,neg,approach-neg,1,1,506.39999999990687
sub-020,55,2,TRUE,right,avoid,pos,meat27_crop.jpg,1,6,TRUE,54,20,EAT                                    DON'T EAT,2353.6006,2341.507,2144.0488,--,NA,right,2,NA,right,no_response,not_eat,approach,neg,approach-neg,NA,1,NA
sub-020,56,2,FALSE,right,approach,neg,insect21_crop.jpg,1,6,TRUE,55,20,EAT                                    DON'T EAT,2355.619,2341.507,2144.0488,1,2356.33,right,1,left,left,eat,eat,approach,neg,approach-neg,1,1,711
sub-020,57,2,TRUE,right,avoid,neg,fungus40_crop.jpg,1,6,TRUE,56,20,EAT                                    DON'T EAT,2357.6372,2341.507,2144.0488,--,NA,right,2,NA,right,no_response,not_eat,approach,neg,approach-neg,NA,1,NA
sub-020,58,2,FALSE,right,approach,neg,insect27_crop.jpg,1,6,TRUE,57,20,EAT                                    DON'T EAT,2359.6555,2341.507,2144.0488,1,2360.5576,right,1,left,left,eat,eat,approach,neg,approach-neg,1,1,902.1000000000931
sub-020,59,2,FALSE,right,approach,neg,insect23_crop.jpg,1,6,TRUE,58,20,EAT                                    DON'T EAT,2361.6738,2341.507,2144.0488,1,2362.445,right,1,left,left,eat,eat,approach,neg,approach-neg,1,1,771.2000000001863
sub-020,60,2,FALSE,right,approach,neg,insect9_crop.jpg,1,6,TRUE,59,20,EAT                                    DON'T EAT,2363.692,2341.507,2144.0488,1,2364.2332,right,1,left,left,eat,eat,approach,neg,approach-neg,1,1,541.2000000001863
sub-020,61,1,FALSE,left,approach,pos,cake24_crop.jpg,1,7,TRUE,60,20,EAT                                    DON'T EAT,2383.3584,2379.3386,2144.0488,1,2384.1394,right,1,left,left,eat,eat,approach,pos,approach-pos,1,1,781
sub-020,62,1,TRUE,left,avoid,neg,fungus7_crop.jpg,1,7,TRUE,61,20,EAT                                    DON'T EAT,2385.377,2379.3386,2144.0488,--,NA,right,2,NA,right,no_response,not_eat,approach,pos,approach-pos,NA,1,NA
sub-020,63,1,FALSE,left,approach,pos,cake32_crop.jpg,1,7,TRUE,62,20,EAT                                    DON'T EAT,2387.3953,2379.3386,2144.0488,1,2388.243,right,1,left,left,eat,eat,approach,pos,approach-pos,1,1,847.6999999997206
sub-020,64,1,TRUE,left,avoid,pos,meat16_crop.jpg,1,7,TRUE,63,20,EAT                                    DON'T EAT,2389.4138,2379.3386,2144.0488,--,NA,right,2,NA,right,no_response,not_eat,approach,pos,approach-pos,NA,1,NA
sub-020,65,1,FALSE,left,approach,pos,cake26_crop.jpg,1,7,TRUE,64,20,EAT                                    DON'T EAT,2391.4321,2379.3386,2144.0488,1,2392.0178,right,1,left,left,eat,eat,approach,pos,approach-pos,1,1,585.7000000001863
sub-020,66,1,FALSE,left,approach,pos,cake15_crop.jpg,1,7,TRUE,65,20,EAT                                    DON'T EAT,2393.4504,2379.3386,2144.0488,1,2394.137,right,1,left,left,eat,eat,approach,pos,approach-pos,1,1,686.5999999996275
sub-020,67,1,FALSE,left,approach,pos,cake40_crop.jpg,1,7,TRUE,66,20,EAT                                    DON'T EAT,2395.4688,2379.3386,2144.0488,1,2396.0068,right,1,left,left,eat,eat,approach,pos,approach-pos,1,1,538
sub-020,68,1,FALSE,left,approach,pos,cake22_crop.jpg,1,7,TRUE,67,20,EAT                                    DON'T EAT,2397.487,2379.3386,2144.0488,1,2397.96,right,1,left,left,eat,eat,approach,pos,approach-pos,1,1,473
sub-020,69,1,FALSE,left,approach,pos,cake11_crop.jpg,1,7,TRUE,68,20,EAT                                    DON'T EAT,2399.5054,2379.3386,2144.0488,1,2400.038,right,1,left,left,eat,eat,approach,pos,approach-pos,1,1,532.6000000000931
sub-020,70,1,FALSE,left,approach,pos,cake35_crop.jpg,1,7,TRUE,69,20,EAT                                    DON'T EAT,2401.5237,2379.3386,2144.0488,1,2401.98,right,1,left,left,eat,eat,approach,pos,approach-pos,1,1,456.29999999981374
sub-020,71,2,FALSE,left,approach,pos,cake9_crop.jpg,1,8,TRUE,70,20,EAT                                    DON'T EAT,2417.9875,2413.9673,2144.0488,1,2418.7483,right,1,left,left,eat,eat,approach,pos,approach-pos,1,1,760.8000000002794
sub-020,72,2,FALSE,left,approach,pos,cake31_crop.jpg,1,8,TRUE,71,20,EAT                                    DON'T EAT,2420.0059,2413.9673,2144.0488,1,2420.5674,right,1,left,left,eat,eat,approach,pos,approach-pos,1,1,561.5
sub-020,73,2,FALSE,left,approach,pos,cake14_crop.jpg,1,8,TRUE,72,20,EAT                                    DON'T EAT,2422.0234,2413.9673,2144.0488,1,2422.485,right,1,left,left,eat,eat,approach,pos,approach-pos,1,1,461.60000000009313
sub-020,74,2,TRUE,left,avoid,neg,fungus10_crop.jpg,1,8,TRUE,73,20,EAT                                    DON'T EAT,2424.0425,2413.9673,2144.0488,--,NA,right,2,NA,right,no_response,not_eat,approach,pos,approach-pos,NA,1,NA
sub-020,75,2,FALSE,left,approach,pos,cake33_crop.jpg,1,8,TRUE,74,20,EAT                                    DON'T EAT,2426.0608,2413.9673,2144.0488,1,2426.779,right,1,left,left,eat,eat,approach,pos,approach-pos,1,1,718.1999999997206
sub-020,76,2,TRUE,left,avoid,pos,meat30_crop.jpg,1,8,TRUE,75,20,EAT                                    DON'T EAT,2428.079,2413.9673,2144.0488,--,NA,right,2,NA,right,no_response,not_eat,approach,pos,approach-pos,NA,1,NA
sub-020,77,2,FALSE,left,approach,pos,cake10_crop.jpg,1,8,TRUE,76,20,EAT                                    DON'T EAT,2430.0974,2413.9673,2144.0488,1,2431.1833,right,1,left,left,eat,eat,approach,pos,approach-pos,1,1,1085.9000000003725
sub-020,78,2,FALSE,left,approach,pos,cake12_crop.jpg,1,8,TRUE,77,20,EAT                                    DON'T EAT,2432.1152,2413.9673,2144.0488,1,2432.8293,right,1,left,left,eat,eat,approach,pos,approach-pos,1,1,714.0999999996275
sub-020,79,2,FALSE,left,approach,pos,cake19_crop.jpg,1,8,TRUE,78,20,EAT                                    DON'T EAT,2434.134,2413.9673,2144.0488,1,2434.7239,right,1,left,left,eat,eat,approach,pos,approach-pos,1,1,589.8999999999069
sub-020,80,2,FALSE,left,approach,pos,cake13_crop.jpg,1,8,TRUE,79,20,EAT                                    DON'T EAT,2436.1526,2413.9673,2144.0488,1,2436.7468,right,1,left,left,eat,eat,approach,pos,approach-pos,1,1,594.1999999997206
sub-020,81,0,FALSE,right,avoid,pos,meat23_crop.jpg,2,9,TRUE,80,20,EAT                                    DON'T EAT,2543.4749,2539.4548,2527.3127,--,NA,left,2,NA,right,no_response,not_eat,avoid,pos,avoid-pos,NA,1,NA
sub-020,82,0,TRUE,right,approach,neg,insect3_crop.jpg,2,9,TRUE,81,20,EAT                                    DON'T EAT,2545.4934,2539.4548,2527.3127,1,2546.4333,left,1,left,left,eat,eat,avoid,pos,avoid-pos,1,1,939.9000000003725
sub-020,83,0,FALSE,right,avoid,pos,meat20_crop.jpg,2,9,TRUE,82,20,EAT                                    DON'T EAT,2547.5117,2539.4548,2527.3127,--,NA,left,2,NA,right,no_response,not_eat,avoid,pos,avoid-pos,NA,1,NA
sub-020,84,0,FALSE,right,avoid,pos,meat17_crop.jpg,2,9,TRUE,83,20,EAT                                    DON'T EAT,2549.53,2539.4548,2527.3127,--,NA,left,2,NA,right,no_response,not_eat,avoid,pos,avoid-pos,NA,1,NA
sub-020,85,0,FALSE,right,avoid,pos,meat38_crop.jpg,2,9,TRUE,84,20,EAT                                    DON'T EAT,2551.548,2539.4548,2527.3127,--,NA,left,2,NA,right,no_response,not_eat,avoid,pos,avoid-pos,NA,1,NA
sub-020,86,0,FALSE,right,avoid,pos,meat1_crop.jpg,2,9,TRUE,85,20,EAT                                    DON'T EAT,2553.5667,2539.4548,2527.3127,--,NA,left,2,NA,right,no_response,not_eat,avoid,pos,avoid-pos,NA,1,NA
sub-020,87,0,FALSE,right,avoid,pos,meat29_crop.jpg,2,9,TRUE,86,20,EAT                                    DON'T EAT,2555.585,2539.4548,2527.3127,--,NA,left,2,NA,right,no_response,not_eat,avoid,pos,avoid-pos,NA,1,NA
sub-020,88,0,FALSE,right,avoid,pos,meat22_crop.jpg,2,9,TRUE,87,20,EAT                                    DON'T EAT,2557.6033,2539.4548,2527.3127,--,NA,left,2,NA,right,no_response,not_eat,avoid,pos,avoid-pos,NA,1,NA
sub-020,89,0,FALSE,right,avoid,pos,meat10_crop.jpg,2,9,TRUE,88,20,EAT                                    DON'T EAT,2559.6216,2539.4548,2527.3127,--,NA,left,2,NA,right,no_response,not_eat,avoid,pos,avoid-pos,NA,1,NA
sub-020,90,0,TRUE,right,approach,pos,cake18_crop.jpg,2,9,TRUE,89,20,EAT                                    DON'T EAT,2561.6401,2539.4548,2527.3127,--,NA,left,2,NA,right,no_response,not_eat,avoid,pos,avoid-pos,NA,0,NA
sub-020,91,3,TRUE,right,avoid,neg,fungus14_crop.jpg,2,10,TRUE,90,20,EAT                                    DON'T EAT,2581.1726,2577.1528,2527.3127,--,NA,left,2,NA,right,no_response,not_eat,approach,neg,approach-neg,NA,1,NA
sub-020,92,3,FALSE,right,approach,neg,insect28_crop.jpg,2,10,TRUE,91,20,EAT                                    DON'T EAT,2583.1914,2577.1528,2527.3127,1,2584.0237,left,1,left,left,eat,eat,approach,neg,approach-neg,1,1,832.2999999998137
sub-020,93,3,FALSE,right,approach,neg,insect22_crop.jpg,2,10,TRUE,92,20,EAT                                    DON'T EAT,2585.2097,2577.1528,2527.3127,1,2585.8982,left,1,left,left,eat,eat,approach,neg,approach-neg,1,1,688.5000000004657
sub-020,94,3,FALSE,right,approach,neg,insect13_crop.jpg,2,10,TRUE,93,20,EAT                                    DON'T EAT,2587.228,2577.1528,2527.3127,1,2587.702,left,1,left,left,eat,eat,approach,neg,approach-neg,1,1,474
sub-020,95,3,TRUE,right,avoid,pos,meat7_crop.jpg,2,10,TRUE,94,20,EAT                                    DON'T EAT,2589.2463,2577.1528,2527.3127,--,NA,left,2,NA,right,no_response,not_eat,approach,neg,approach-neg,NA,1,NA
sub-020,96,3,FALSE,right,approach,neg,insect35_crop.jpg,2,10,TRUE,95,20,EAT                                    DON'T EAT,2591.2646,2577.1528,2527.3127,1,2592.069,left,1,left,left,eat,eat,approach,neg,approach-neg,1,1,804.3999999999069
sub-020,97,3,FALSE,right,approach,neg,insect38_crop.jpg,2,10,TRUE,96,20,EAT                                    DON'T EAT,2593.2827,2577.1528,2527.3127,1,2594.2126,left,1,left,left,eat,eat,approach,neg,approach-neg,1,1,929.8999999994412
sub-020,98,3,FALSE,right,approach,neg,insect6_crop.jpg,2,10,TRUE,97,20,EAT                                    DON'T EAT,2595.3013,2577.1528,2527.3127,1,2596.1062,left,1,left,left,eat,eat,approach,neg,approach-neg,1,1,804.8999999999069
sub-020,99,3,FALSE,right,approach,neg,insect25_crop.jpg,2,10,TRUE,98,20,EAT                                    DON'T EAT,2597.3196,2577.1528,2527.3127,1,2597.9326,left,1,left,left,eat,eat,approach,neg,approach-neg,1,1,613.0000000004657
sub-020,100,3,FALSE,right,approach,neg,insect19_crop.jpg,2,10,TRUE,99,20,EAT                                    DON'T EAT,2599.338,2577.1528,2527.3127,1,2599.8782,left,1,left,left,eat,eat,approach,neg,approach-neg,1,1,540.2000000001863
sub-020,101,0,FALSE,right,approach,pos,cake33_crop.jpg,2,11,TRUE,100,20,EAT                                    DON'T EAT,2617.5198,2613.4995,2527.3127,1,2618.4084,left,1,left,left,eat,eat,approach,pos,approach-pos,1,1,888.6000000000931
sub-020,102,0,TRUE,right,avoid,pos,meat4_crop.jpg,2,11,TRUE,101,20,EAT                                    DON'T EAT,2619.538,2613.4995,2527.3127,--,NA,left,2,NA,right,no_response,not_eat,approach,pos,approach-pos,NA,1,NA
sub-020,103,0,FALSE,right,approach,pos,cake20_crop.jpg,2,11,TRUE,102,20,EAT                                    DON'T EAT,2621.5562,2613.4995,2527.3127,1,2622.2375,left,1,left,left,eat,eat,approach,pos,approach-pos,1,1,681.2999999998137
sub-020,104,0,FALSE,right,approach,pos,cake19_crop.jpg,2,11,TRUE,103,20,EAT                                    DON'T EAT,2623.575,2613.4995,2527.3127,1,2624.3052,left,1,left,left,eat,eat,approach,pos,approach-pos,1,1,730.1999999997206
sub-020,105,0,FALSE,right,approach,pos,cake6_crop.jpg,2,11,TRUE,104,20,EAT                                    DON'T EAT,2625.5933,2613.4995,2527.3127,1,2626.2493,left,1,left,left,eat,eat,approach,pos,approach-pos,1,1,656
sub-020,106,0,FALSE,right,approach,pos,cake35_crop.jpg,2,11,TRUE,105,20,EAT                                    DON'T EAT,2627.6116,2613.4995,2527.3127,1,2628.1836,left,1,left,left,eat,eat,approach,pos,approach-pos,1,1,571.9999999995343
sub-020,107,0,FALSE,right,approach,pos,cake29_crop.jpg,2,11,TRUE,106,20,EAT                                    DON'T EAT,2629.63,2613.4995,2527.3127,1,2630.1472,left,1,left,left,eat,eat,approach,pos,approach-pos,1,1,517.1999999997206
sub-020,108,0,FALSE,right,approach,pos,cake24_crop.jpg,2,11,TRUE,107,20,EAT                                    DON'T EAT,2631.6482,2613.4995,2527.3127,1,2632.1929,left,1,left,left,eat,eat,approach,pos,approach-pos,1,1,544.6999999997206
sub-020,109,0,TRUE,right,avoid,neg,fungus4_crop.jpg,2,11,TRUE,108,20,EAT                                    DON'T EAT,2633.6665,2613.4995,2527.3127,--,NA,left,2,NA,right,no_response,not_eat,approach,pos,approach-pos,NA,1,NA
sub-020,110,0,FALSE,right,approach,pos,cake8_crop.jpg,2,11,TRUE,109,20,EAT                                    DON'T EAT,2635.6848,2613.4995,2527.3127,1,2636.5847,left,1,left,left,eat,eat,approach,pos,approach-pos,1,1,899.8999999999069
sub-020,111,0,FALSE,left,approach,neg,insect3_crop.jpg,2,12,TRUE,110,20,EAT                                    DON'T EAT,2652.1313,2648.1118,2527.3127,1,2652.8596,left,1,left,left,eat,eat,approach,neg,approach-neg,1,1,728.2999999998137
sub-020,112,0,FALSE,left,approach,neg,insect34_crop.jpg,2,12,TRUE,111,20,EAT                                    DON'T EAT,2654.1501,2648.1118,2527.3127,1,2654.723,left,1,left,left,eat,eat,approach,neg,approach-neg,1,1,572.9000000003725
sub-020,113,0,TRUE,left,avoid,pos,meat11_crop.jpg,2,12,TRUE,112,20,EAT                                    DON'T EAT,2656.1685,2648.1118,2527.3127,--,NA,left,2,NA,right,no_response,not_eat,approach,neg,approach-neg,NA,1,NA
sub-020,114,0,FALSE,left,approach,neg,insect12_crop.jpg,2,12,TRUE,113,20,EAT                                    DON'T EAT,2658.1868,2648.1118,2527.3127,1,2658.992,left,1,left,left,eat,eat,approach,neg,approach-neg,1,1,805.2000000001863
sub-020,115,0,FALSE,left,approach,neg,insect10_crop.jpg,2,12,TRUE,114,20,EAT                                    DON'T EAT,2660.2053,2648.1118,2527.3127,1,2661.0745,left,1,left,left,eat,eat,approach,neg,approach-neg,1,1,869.1999999997206
sub-020,116,0,TRUE,left,avoid,neg,fungus23_crop.jpg,2,12,TRUE,115,20,EAT                                    DON'T EAT,2662.2231,2648.1118,2527.3127,--,NA,left,2,NA,right,no_response,not_eat,approach,neg,approach-neg,NA,1,NA
sub-020,117,0,FALSE,left,approach,neg,insect20_crop.jpg,2,12,TRUE,116,20,EAT                                    DON'T EAT,2664.242,2648.1118,2527.3127,1,2664.9414,left,1,left,left,eat,eat,approach,neg,approach-neg,1,1,699.4000000003725
sub-020,118,0,FALSE,left,approach,neg,insect36_crop.jpg,2,12,TRUE,117,20,EAT                                    DON'T EAT,2666.2603,2648.1118,2527.3127,1,2666.8223,left,1,left,left,eat,eat,approach,neg,approach-neg,1,1,562
sub-020,119,0,FALSE,left,approach,neg,insect39_crop.jpg,2,12,TRUE,118,20,EAT                                    DON'T EAT,2668.2786,2648.1118,2527.3127,1,2669.1582,left,1,left,left,eat,eat,approach,neg,approach-neg,1,1,879.5999999996275
sub-020,120,0,FALSE,left,approach,neg,insect1_crop.jpg,2,12,TRUE,119,20,EAT                                    DON'T EAT,2670.2969,2648.1118,2527.3127,1,2671.0295,left,1,left,left,eat,eat,approach,neg,approach-neg,1,1,732.6000000000931
sub-020,121,3,FALSE,right,avoid,pos,meat13_crop.jpg,2,13,TRUE,120,20,EAT                                    DON'T EAT,2688.0117,2683.9917,2527.3127,--,NA,left,2,NA,right,no_response,not_eat,avoid,pos,avoid-pos,NA,1,NA
sub-020,122,3,TRUE,right,approach,pos,cake32_crop.jpg,2,13,TRUE,121,20,EAT                                    DON'T EAT,2690.03,2683.9917,2527.3127,1,2690.9976,left,1,left,left,eat,eat,avoid,pos,avoid-pos,1,1,967.6000000000931
sub-020,123,3,FALSE,right,avoid,pos,meat2_crop.jpg,2,13,TRUE,122,20,EAT                                    DON'T EAT,2692.0483,2683.9917,2527.3127,--,NA,left,2,NA,right,no_response,not_eat,avoid,pos,avoid-pos,NA,1,NA
sub-020,124,3,FALSE,right,avoid,pos,meat31_crop.jpg,2,13,TRUE,123,20,EAT                                    DON'T EAT,2694.0667,2683.9917,2527.3127,--,NA,left,2,NA,right,no_response,not_eat,avoid,pos,avoid-pos,NA,1,NA
sub-020,125,3,FALSE,right,avoid,pos,meat26_crop.jpg,2,13,TRUE,124,20,EAT                                    DON'T EAT,2696.0852,2683.9917,2527.3127,--,NA,left,2,NA,right,no_response,not_eat,avoid,pos,avoid-pos,NA,1,NA
sub-020,126,3,TRUE,right,approach,neg,insect7_crop.jpg,2,13,TRUE,125,20,EAT                                    DON'T EAT,2698.1033,2683.9917,2527.3127,1,2698.8398,left,1,left,left,eat,eat,avoid,pos,avoid-pos,1,1,736.5
sub-020,127,3,FALSE,right,avoid,pos,meat35_crop.jpg,2,13,TRUE,126,20,EAT                                    DON'T EAT,2700.1218,2683.9917,2527.3127,--,NA,left,2,NA,right,no_response,not_eat,avoid,pos,avoid-pos,NA,1,NA
sub-020,128,3,FALSE,right,avoid,pos,meat9_crop.jpg,2,13,TRUE,127,20,EAT                                    DON'T EAT,2702.1401,2683.9917,2527.3127,--,NA,left,2,NA,right,no_response,not_eat,avoid,pos,avoid-pos,NA,1,NA
sub-020,129,3,FALSE,right,avoid,pos,meat11_crop.jpg,2,13,TRUE,128,20,EAT                                    DON'T EAT,2704.1584,2683.9917,2527.3127,--,NA,left,2,NA,right,no_response,not_eat,avoid,pos,avoid-pos,NA,1,NA
sub-020,130,3,FALSE,right,avoid,pos,meat3_crop.jpg,2,13,TRUE,129,20,EAT                                    DON'T EAT,2706.1768,2683.9917,2527.3127,--,NA,left,2,NA,right,no_response,not_eat,avoid,pos,avoid-pos,NA,1,NA
sub-020,131,1,FALSE,left,approach,neg,insect8_crop.jpg,2,14,TRUE,130,20,EAT                                    DON'T EAT,2722.8071,2718.7869,2527.3127,1,2723.6726,left,1,left,left,eat,eat,approach,neg,approach-neg,1,1,865.5
sub-020,132,1,FALSE,left,approach,neg,insect37_crop.jpg,2,14,TRUE,131,20,EAT                                    DON'T EAT,2724.8254,2718.7869,2527.3127,1,2725.855,left,1,left,left,eat,eat,approach,neg,approach-neg,1,1,1029.5999999996275
sub-020,133,1,FALSE,left,approach,neg,insect23_crop.jpg,2,14,TRUE,132,20,EAT                                    DON'T EAT,2726.844,2718.7869,2527.3127,1,2727.4023,left,1,left,left,eat,eat,approach,neg,approach-neg,1,1,558.3000000002794
sub-020,134,1,FALSE,left,approach,neg,insect9_crop.jpg,2,14,TRUE,133,20,EAT                                    DON'T EAT,2728.862,2718.7869,2527.3127,1,2729.5386,left,1,left,left,eat,eat,approach,neg,approach-neg,1,1,676.5999999996275
sub-020,135,1,FALSE,left,approach,neg,insect11_crop.jpg,2,14,TRUE,134,20,EAT                                    DON'T EAT,2730.8806,2718.7869,2527.3127,1,2731.3975,left,1,left,left,eat,eat,approach,neg,approach-neg,1,1,516.8999999999069
sub-020,136,1,FALSE,left,approach,neg,insect28_crop.jpg,2,14,TRUE,135,20,EAT                                    DON'T EAT,2732.899,2718.7869,2527.3127,1,2733.5574,left,1,left,left,eat,eat,approach,neg,approach-neg,1,1,658.4000000003725
sub-020,137,1,FALSE,left,approach,neg,insect15_crop.jpg,2,14,TRUE,136,20,EAT                                    DON'T EAT,2734.9172,2718.7869,2527.3127,1,2735.425,left,1,left,left,eat,eat,approach,neg,approach-neg,1,1,507.8000000002794
sub-020,138,1,TRUE,left,avoid,pos,meat33_crop.jpg,2,14,TRUE,137,20,EAT                                    DON'T EAT,2736.9358,2718.7869,2527.3127,--,NA,left,2,NA,right,no_response,not_eat,approach,neg,approach-neg,NA,1,NA
sub-020,139,1,TRUE,left,avoid,neg,fungus24_crop.jpg,2,14,TRUE,138,20,EAT                                    DON'T EAT,2738.9539,2718.7869,2527.3127,--,NA,left,2,NA,right,no_response,not_eat,approach,neg,approach-neg,NA,1,NA
sub-020,140,1,FALSE,left,approach,neg,insect7_crop.jpg,2,14,TRUE,139,20,EAT                                    DON'T EAT,2740.9724,2718.7869,2527.3127,1,2741.734,left,1,left,left,eat,eat,approach,neg,approach-neg,1,1,761.6000000000931
sub-020,141,1,FALSE,right,avoid,pos,meat5_crop.jpg,2,15,TRUE,140,20,EAT                                    DON'T EAT,2758.737,2754.7168,2527.3127,--,NA,left,2,NA,right,no_response,not_eat,avoid,pos,avoid-pos,NA,1,NA
sub-020,142,1,FALSE,right,avoid,pos,meat36_crop.jpg,2,15,TRUE,141,20,EAT                                    DON'T EAT,2760.7554,2754.7168,2527.3127,--,NA,left,2,NA,right,no_response,not_eat,avoid,pos,avoid-pos,NA,1,NA
sub-020,143,1,FALSE,right,avoid,pos,meat40_crop.jpg,2,15,TRUE,142,20,EAT                                    DON'T EAT,2762.7737,2754.7168,2527.3127,--,NA,left,2,NA,right,no_response,not_eat,avoid,pos,avoid-pos,NA,1,NA
sub-020,144,1,FALSE,right,avoid,pos,meat15_crop.jpg,2,15,TRUE,143,20,EAT                                    DON'T EAT,2764.792,2754.7168,2527.3127,--,NA,left,2,NA,right,no_response,not_eat,avoid,pos,avoid-pos,NA,1,NA
sub-020,145,1,FALSE,right,avoid,pos,meat34_crop.jpg,2,15,TRUE,144,20,EAT                                    DON'T EAT,2766.8105,2754.7168,2527.3127,--,NA,left,2,NA,right,no_response,not_eat,avoid,pos,avoid-pos,NA,1,NA
sub-020,146,1,TRUE,right,approach,neg,insect15_crop.jpg,2,15,TRUE,145,20,EAT                                    DON'T EAT,2768.8289,2754.7168,2527.3127,1,2770.3992,left,1,left,left,eat,eat,avoid,pos,avoid-pos,1,1,1570.2999999998137
sub-020,147,1,FALSE,right,avoid,pos,meat32_crop.jpg,2,15,TRUE,146,20,EAT                                    DON'T EAT,2770.8472,2754.7168,2527.3127,--,NA,left,2,NA,right,no_response,not_eat,avoid,pos,avoid-pos,NA,1,NA
sub-020,148,1,TRUE,right,approach,pos,cake22_crop.jpg,2,15,TRUE,147,20,EAT                                    DON'T EAT,2772.8655,2754.7168,2527.3127,1,2773.639,left,1,left,left,eat,eat,avoid,pos,avoid-pos,1,1,773.5
sub-020,149,1,FALSE,right,avoid,pos,meat21_crop.jpg,2,15,TRUE,148,20,EAT                                    DON'T EAT,2774.8838,2754.7168,2527.3127,--,NA,left,2,NA,right,no_response,not_eat,avoid,pos,avoid-pos,NA,1,NA
sub-020,150,1,FALSE,right,avoid,pos,meat24_crop.jpg,2,15,TRUE,149,20,EAT                                    DON'T EAT,2776.9023,2754.7168,2527.3127,--,NA,left,2,NA,right,no_response,not_eat,avoid,pos,avoid-pos,NA,1,NA
sub-020,151,1,FALSE,right,approach,neg,insect10_crop.jpg,2,16,TRUE,150,20,EAT                                    DON'T EAT,2795.3008,2791.2808,2527.3127,1,2795.9973,left,1,left,left,eat,eat,approach,neg,approach-neg,1,1,696.5
sub-020,152,1,FALSE,right,approach,neg,insect40_crop.jpg,2,16,TRUE,151,20,EAT                                    DON'T EAT,2797.319,2791.2808,2527.3127,1,2798.1455,left,1,left,left,eat,eat,approach,neg,approach-neg,1,1,826.5
sub-020,153,1,FALSE,right,approach,neg,insect8_crop.jpg,2,16,TRUE,152,20,EAT                                    DON'T EAT,2799.3374,2791.2808,2527.3127,1,2799.9182,left,1,left,left,eat,eat,approach,neg,approach-neg,1,1,580.8000000002794
sub-020,154,1,FALSE,right,approach,neg,insect20_crop.jpg,2,16,TRUE,153,20,EAT                                    DON'T EAT,2801.356,2791.2808,2527.3127,1,2801.853,left,1,left,left,eat,eat,approach,neg,approach-neg,1,1,497
sub-020,155,1,TRUE,right,avoid,neg,fungus5_crop.jpg,2,16,TRUE,154,20,EAT                                    DON'T EAT,2803.3743,2791.2808,2527.3127,--,NA,left,2,NA,right,no_response,not_eat,approach,neg,approach-neg,NA,1,NA
sub-020,156,1,FALSE,right,approach,neg,insect36_crop.jpg,2,16,TRUE,155,20,EAT                                    DON'T EAT,2805.3928,2791.2808,2527.3127,1,2806.2998,left,1,left,left,eat,eat,approach,neg,approach-neg,1,1,906.9999999995343
sub-020,157,1,FALSE,right,approach,neg,insect34_crop.jpg,2,16,TRUE,156,20,EAT                                    DON'T EAT,2807.411,2791.2808,2527.3127,1,2808.2654000000002,left,1,left,left,eat,eat,approach,neg,approach-neg,1,1,854.4000000003725
sub-020,158,1,TRUE,right,avoid,pos,meat33_crop.jpg,2,16,TRUE,157,20,EAT                                    DON'T EAT,2809.4292,2791.2808,2527.3127,--,NA,left,2,NA,right,no_response,not_eat,approach,neg,approach-neg,NA,1,NA
sub-020,159,1,FALSE,right,approach,neg,insect11_crop.jpg,2,16,TRUE,158,20,EAT                                    DON'T EAT,2811.4475,2791.2808,2527.3127,1,2812.1445,left,1,left,left,eat,eat,approach,neg,approach-neg,1,1,697
sub-020,160,1,FALSE,right,approach,neg,insect37_crop.jpg,2,16,TRUE,159,20,EAT                                    DON'T EAT,2813.466,2791.2808,2527.3127,1,2814.3213,left,1,left,left,eat,eat,approach,neg,approach-neg,1,1,855.3000000002794
sub-020,161,2,FALSE,left,approach,neg,insect35_crop.jpg,3,17,TRUE,160,20,EAT                                    DON'T EAT,2914.1162,2910.0962,2898.6401,1,2914.9739,right,1,left,left,eat,eat,approach,neg,approach-neg,1,1,857.7000000001863
sub-020,162,2,FALSE,left,approach,neg,insect31_crop.jpg,3,17,TRUE,161,20,EAT                                    DON'T EAT,2916.1345,2910.0962,2898.6401,1,2916.7253,right,1,left,left,eat,eat,approach,neg,approach-neg,1,1,590.8000000002794
sub-020,163,2,FALSE,left,approach,neg,insect22_crop.jpg,3,17,TRUE,162,20,EAT                                    DON'T EAT,2918.1526,2910.0962,2898.6401,1,2918.7034,right,1,left,left,eat,eat,approach,neg,approach-neg,1,1,550.7999999998137
sub-020,164,2,TRUE,left,avoid,neg,fungus33_crop.jpg,3,17,TRUE,163,20,EAT                                    DON'T EAT,2920.1711,2910.0962,2898.6401,--,NA,right,2,NA,right,no_response,not_eat,approach,neg,approach-neg,NA,1,NA
sub-020,165,2,FALSE,left,approach,neg,insect5_crop.jpg,3,17,TRUE,164,20,EAT                                    DON'T EAT,2922.1895,2910.0962,2898.6401,1,2922.816,right,1,left,left,eat,eat,approach,neg,approach-neg,1,1,626.5
sub-020,166,2,FALSE,left,approach,neg,insect24_crop.jpg,3,17,TRUE,165,20,EAT                                    DON'T EAT,2924.2078,2910.0962,2898.6401,1,2924.8193,right,1,left,left,eat,eat,approach,neg,approach-neg,1,1,611.5
sub-020,167,2,FALSE,left,approach,neg,insect40_crop.jpg,3,17,TRUE,166,20,EAT                                    DON'T EAT,2926.2263,2910.0962,2898.6401,1,2926.7556,right,1,left,left,eat,eat,approach,neg,approach-neg,1,1,529.3000000002794
sub-020,168,2,FALSE,left,approach,neg,insect21_crop.jpg,3,17,TRUE,167,20,EAT                                    DON'T EAT,2928.2446,2910.0962,2898.6401,1,2928.816,right,1,left,left,eat,eat,approach,neg,approach-neg,1,1,571.3999999999069
sub-020,169,2,FALSE,left,approach,neg,insect27_crop.jpg,3,17,TRUE,168,20,EAT                                    DON'T EAT,2930.2627,2910.0962,2898.6401,1,2930.7793,right,1,left,left,eat,eat,approach,neg,approach-neg,1,1,516.6000000000931
sub-020,170,2,TRUE,left,avoid,pos,meat9_crop.jpg,3,17,TRUE,169,20,EAT                                    DON'T EAT,2932.2808,2910.0962,2898.6401,--,NA,right,2,NA,right,no_response,not_eat,approach,neg,approach-neg,NA,1,NA
sub-020,171,2,TRUE,right,approach,pos,cake23_crop.jpg,3,18,TRUE,170,20,EAT                                    DON'T EAT,2951.7974,2947.777,2898.6401,1,2952.7385,right,1,left,left,eat,eat,avoid,pos,avoid-pos,1,1,941.1000000000931
sub-020,172,2,FALSE,right,avoid,pos,meat37_crop.jpg,3,18,TRUE,171,20,EAT                                    DON'T EAT,2953.8152,2947.777,2898.6401,--,NA,right,2,NA,right,no_response,not_eat,avoid,pos,avoid-pos,NA,1,NA
sub-020,173,2,FALSE,right,avoid,pos,meat12_crop.jpg,3,18,TRUE,172,20,EAT                                    DON'T EAT,2955.8342,2947.777,2898.6401,--,NA,right,2,NA,right,no_response,not_eat,avoid,pos,avoid-pos,NA,1,NA
sub-020,174,2,FALSE,right,avoid,pos,meat19_crop.jpg,3,18,TRUE,173,20,EAT                                    DON'T EAT,2957.8525,2947.777,2898.6401,--,NA,right,2,NA,right,no_response,not_eat,avoid,pos,avoid-pos,NA,1,NA
sub-020,175,2,TRUE,right,approach,neg,insect14_crop.jpg,3,18,TRUE,174,20,EAT                                    DON'T EAT,2959.8708,2947.777,2898.6401,1,2960.622,right,1,left,left,eat,eat,avoid,pos,avoid-pos,1,1,751.1999999997206
sub-020,176,2,FALSE,right,avoid,pos,meat25_crop.jpg,3,18,TRUE,175,20,EAT                                    DON'T EAT,2961.8892,2947.777,2898.6401,--,NA,right,2,NA,right,no_response,not_eat,avoid,pos,avoid-pos,NA,1,NA
sub-020,177,2,FALSE,right,avoid,pos,meat30_crop.jpg,3,18,TRUE,176,20,EAT                                    DON'T EAT,2963.9075,2947.777,2898.6401,--,NA,right,2,NA,right,no_response,not_eat,avoid,pos,avoid-pos,NA,1,NA
sub-020,178,2,FALSE,right,avoid,pos,meat39_crop.jpg,3,18,TRUE,177,20,EAT                                    DON'T EAT,2965.926,2947.777,2898.6401,--,NA,right,2,NA,right,no_response,not_eat,avoid,pos,avoid-pos,NA,1,NA
sub-020,179,2,FALSE,right,avoid,pos,meat14_crop.jpg,3,18,TRUE,178,20,EAT                                    DON'T EAT,2967.944,2947.777,2898.6401,--,NA,right,2,NA,right,no_response,not_eat,avoid,pos,avoid-pos,NA,1,NA
sub-020,180,2,FALSE,right,avoid,pos,meat8_crop.jpg,3,18,TRUE,179,20,EAT                                    DON'T EAT,2969.9626,2947.777,2898.6401,--,NA,right,2,NA,right,no_response,not_eat,avoid,pos,avoid-pos,NA,1,NA
sub-020,181,0,FALSE,right,approach,neg,insect33_crop.jpg,3,19,TRUE,180,20,EAT                                    DON'T EAT,2987.1602,2983.1401,2898.6401,1,2987.8164,right,1,left,left,eat,eat,approach,neg,approach-neg,1,1,656.2000000006519
sub-020,182,0,FALSE,right,approach,neg,insect16_crop.jpg,3,19,TRUE,181,20,EAT                                    DON'T EAT,2989.1785,2983.1401,2898.6401,1,2989.698,right,1,left,left,eat,eat,approach,neg,approach-neg,1,1,519.5
sub-020,183,0,FALSE,right,approach,neg,insect12_crop.jpg,3,19,TRUE,182,20,EAT                                    DON'T EAT,2991.1968,2983.1401,2898.6401,1,2991.6199,right,1,left,left,eat,eat,approach,neg,approach-neg,1,1,423.10000000009313
sub-020,184,0,FALSE,right,approach,neg,insect4_crop.jpg,3,19,TRUE,183,20,EAT                                    DON'T EAT,2993.215,2983.1401,2898.6401,1,2993.681,right,1,left,left,eat,eat,approach,neg,approach-neg,1,1,466
sub-020,185,0,FALSE,right,approach,neg,insect30_crop.jpg,3,19,TRUE,184,20,EAT                                    DON'T EAT,2995.2334,2983.1401,2898.6401,1,2995.6965,right,1,left,left,eat,eat,approach,neg,approach-neg,1,1,463.10000000009313
sub-020,186,0,TRUE,right,avoid,neg,fungus1_crop.jpg,3,19,TRUE,185,20,EAT                                    DON'T EAT,2997.2517,2983.1401,2898.6401,1,2997.6848,right,1,left,left,eat,eat,approach,neg,approach-neg,0,0,433.10000000009313
sub-020,187,0,TRUE,right,avoid,pos,meat18_crop.jpg,3,19,TRUE,186,20,EAT                                    DON'T EAT,2999.2703,2983.1401,2898.6401,--,NA,right,2,NA,right,no_response,not_eat,approach,neg,approach-neg,NA,1,NA
sub-020,188,0,FALSE,right,approach,neg,insect39_crop.jpg,3,19,TRUE,187,20,EAT                                    DON'T EAT,3001.2886,2983.1401,2898.6401,1,3002.0696,right,1,left,left,eat,eat,approach,neg,approach-neg,1,1,781
sub-020,189,0,FALSE,right,approach,neg,insect17_crop.jpg,3,19,TRUE,188,20,EAT                                    DON'T EAT,3003.307,2983.1401,2898.6401,1,3004.1616,right,1,left,left,eat,eat,approach,neg,approach-neg,1,1,854.6000000000931
sub-020,190,0,FALSE,right,approach,neg,insect31_crop.jpg,3,19,TRUE,189,20,EAT                                    DON'T EAT,3005.3252,2983.1401,2898.6401,1,3006.1514,right,1,left,left,eat,eat,approach,neg,approach-neg,1,1,826.2000000001863
sub-020,191,0,FALSE,left,avoid,pos,meat2_crop.jpg,3,20,TRUE,190,20,EAT                                    DON'T EAT,3021.5388,3017.5183,2898.6401,--,NA,right,2,NA,right,no_response,not_eat,avoid,pos,avoid-pos,NA,1,NA
sub-020,192,0,FALSE,left,avoid,pos,meat26_crop.jpg,3,20,TRUE,191,20,EAT                                    DON'T EAT,3023.557,3017.5183,2898.6401,--,NA,right,2,NA,right,no_response,not_eat,avoid,pos,avoid-pos,NA,1,NA
sub-020,193,0,FALSE,left,avoid,pos,meat3_crop.jpg,3,20,TRUE,192,20,EAT                                    DON'T EAT,3025.5754,3017.5183,2898.6401,--,NA,right,2,NA,right,no_response,not_eat,avoid,pos,avoid-pos,NA,1,NA
sub-020,194,0,FALSE,left,avoid,pos,meat19_crop.jpg,3,20,TRUE,193,20,EAT                                    DON'T EAT,3027.5938,3017.5183,2898.6401,--,NA,right,2,NA,right,no_response,not_eat,avoid,pos,avoid-pos,NA,1,NA
sub-020,195,0,FALSE,left,avoid,pos,meat18_crop.jpg,3,20,TRUE,194,20,EAT                                    DON'T EAT,3029.612,3017.5183,2898.6401,--,NA,right,2,NA,right,no_response,not_eat,avoid,pos,avoid-pos,NA,1,NA
sub-020,196,0,FALSE,left,avoid,pos,meat39_crop.jpg,3,20,TRUE,195,20,EAT                                    DON'T EAT,3031.6301,3017.5183,2898.6401,--,NA,right,2,NA,right,no_response,not_eat,avoid,pos,avoid-pos,NA,1,NA
sub-020,197,0,TRUE,left,approach,neg,insect17_crop.jpg,3,20,TRUE,196,20,EAT                                    DON'T EAT,3033.6484,3017.5183,2898.6401,1,3034.317,right,1,left,left,eat,eat,avoid,pos,avoid-pos,1,1,668.6000000000931
sub-020,198,0,FALSE,left,avoid,pos,meat1_crop.jpg,3,20,TRUE,197,20,EAT                                    DON'T EAT,3035.667,3017.5183,2898.6401,--,NA,right,2,NA,right,no_response,not_eat,avoid,pos,avoid-pos,NA,1,NA
sub-020,199,0,TRUE,left,approach,pos,cake23_crop.jpg,3,20,TRUE,198,20,EAT                                    DON'T EAT,3037.6855,3017.5183,2898.6401,1,3038.3918,right,1,left,left,eat,eat,avoid,pos,avoid-pos,1,1,706.2999999998137
sub-020,200,0,FALSE,left,avoid,pos,meat34_crop.jpg,3,20,TRUE,199,20,EAT                                    DON'T EAT,3039.7039,3017.5183,2898.6401,--,NA,right,2,NA,right,no_response,not_eat,avoid,pos,avoid-pos,NA,1,NA
sub-020,201,3,FALSE,left,avoid,pos,meat21_crop.jpg,3,21,TRUE,200,20,EAT                                    DON'T EAT,3057.8523,3053.832,2898.6401,--,NA,right,2,NA,right,no_response,not_eat,avoid,pos,avoid-pos,NA,1,NA
sub-020,202,3,FALSE,left,avoid,pos,meat38_crop.jpg,3,21,TRUE,201,20,EAT                                    DON'T EAT,3059.8706,3053.832,2898.6401,--,NA,right,2,NA,right,no_response,not_eat,avoid,pos,avoid-pos,NA,1,NA
sub-020,203,3,FALSE,left,avoid,pos,meat20_crop.jpg,3,21,TRUE,202,20,EAT                                    DON'T EAT,3061.889,3053.832,2898.6401,--,NA,right,2,NA,right,no_response,not_eat,avoid,pos,avoid-pos,NA,1,NA
sub-020,204,3,FALSE,left,avoid,pos,meat10_crop.jpg,3,21,TRUE,203,20,EAT                                    DON'T EAT,3063.9072,3053.832,2898.6401,--,NA,right,2,NA,right,no_response,not_eat,avoid,pos,avoid-pos,NA,1,NA
sub-020,205,3,FALSE,left,avoid,pos,meat5_crop.jpg,3,21,TRUE,204,20,EAT                                    DON'T EAT,3065.9258,3053.832,2898.6401,--,NA,right,2,NA,right,no_response,not_eat,avoid,pos,avoid-pos,NA,1,NA
sub-020,206,3,FALSE,left,avoid,pos,meat7_crop.jpg,3,21,TRUE,205,20,EAT                                    DON'T EAT,3067.9438,3053.832,2898.6401,--,NA,right,2,NA,right,no_response,not_eat,avoid,pos,avoid-pos,NA,1,NA
sub-020,207,3,TRUE,left,approach,pos,cake1_crop.jpg,3,21,TRUE,206,20,EAT                                    DON'T EAT,3069.9624,3053.832,2898.6401,1,3070.8096,right,1,left,left,eat,eat,avoid,pos,avoid-pos,1,1,847.2000000001863
sub-020,208,3,TRUE,left,approach,neg,insect18_crop.jpg,3,21,TRUE,207,20,EAT                                    DON'T EAT,3071.9807,3053.832,2898.6401,1,3072.7856,right,1,left,left,eat,eat,avoid,pos,avoid-pos,1,1,804.8999999999069
sub-020,209,3,FALSE,left,avoid,pos,meat25_crop.jpg,3,21,TRUE,208,20,EAT                                    DON'T EAT,3073.9988,3053.832,2898.6401,--,NA,right,2,NA,right,no_response,not_eat,avoid,pos,avoid-pos,NA,1,NA
sub-020,210,3,FALSE,left,avoid,pos,meat35_crop.jpg,3,21,TRUE,209,20,EAT                                    DON'T EAT,3076.0173,3053.832,2898.6401,--,NA,right,2,NA,right,no_response,not_eat,avoid,pos,avoid-pos,NA,1,NA
sub-020,211,3,FALSE,left,approach,pos,cake7_crop.jpg,3,22,TRUE,210,20,EAT                                    DON'T EAT,3092.3308,3088.3108,2898.6401,1,3093.0815,right,1,left,left,eat,eat,approach,pos,approach-pos,1,1,750.6999999997206
sub-020,212,3,FALSE,left,approach,pos,cake2_crop.jpg,3,22,TRUE,211,20,EAT                                    DON'T EAT,3094.3494,3088.3108,2898.6401,1,3094.8567,right,1,left,left,eat,eat,approach,pos,approach-pos,1,1,507.29999999981374
sub-020,213,3,TRUE,left,avoid,neg,fungus28_crop.jpg,3,22,TRUE,212,20,EAT                                    DON'T EAT,3096.3674,3088.3108,2898.6401,--,NA,right,2,NA,right,no_response,not_eat,approach,pos,approach-pos,NA,1,NA
sub-020,214,3,FALSE,left,approach,pos,cake5_crop.jpg,3,22,TRUE,213,20,EAT                                    DON'T EAT,3098.386,3088.3108,2898.6401,1,3098.9165,right,1,left,left,eat,eat,approach,pos,approach-pos,1,1,530.5
sub-020,215,3,FALSE,left,approach,pos,cake37_crop.jpg,3,22,TRUE,214,20,EAT                                    DON'T EAT,3100.4043,3088.3108,2898.6401,1,3101.2375,right,1,left,left,eat,eat,approach,pos,approach-pos,1,1,833.1999999997206
sub-020,216,3,FALSE,left,approach,pos,cake3_crop.jpg,3,22,TRUE,215,20,EAT                                    DON'T EAT,3102.422,3088.3108,2898.6401,1,3103.0981,right,1,left,left,eat,eat,approach,pos,approach-pos,1,1,676.1000000000931
sub-020,217,3,TRUE,left,avoid,pos,meat8_crop.jpg,3,22,TRUE,216,20,EAT                                    DON'T EAT,3104.4412,3088.3108,2898.6401,--,NA,right,2,NA,right,no_response,not_eat,approach,pos,approach-pos,NA,1,NA
sub-020,218,3,FALSE,left,approach,pos,cake21_crop.jpg,3,22,TRUE,217,20,EAT                                    DON'T EAT,3106.4592,3088.3108,2898.6401,1,3106.9893,right,1,left,left,eat,eat,approach,pos,approach-pos,1,1,530.1000000005588
sub-020,219,3,FALSE,left,approach,pos,cake16_crop.jpg,3,22,TRUE,218,20,EAT                                    DON'T EAT,3108.4775,3088.3108,2898.6401,1,3109.0278,right,1,left,left,eat,eat,approach,pos,approach-pos,1,1,550.2999999998137
sub-020,220,3,FALSE,left,approach,pos,cake8_crop.jpg,3,22,TRUE,219,20,EAT                                    DON'T EAT,3110.496,3088.3108,2898.6401,1,3110.9932,right,1,left,left,eat,eat,approach,pos,approach-pos,1,1,497.1999999997206
sub-020,221,2,TRUE,left,approach,neg,insect19_crop.jpg,3,23,TRUE,220,20,EAT                                    DON'T EAT,3129.6453,3125.6252,2898.6401,1,3130.4685,right,1,left,left,eat,eat,avoid,neg,avoid-neg,1,1,823.1999999997206
sub-020,222,2,FALSE,left,avoid,neg,fungus6_crop.jpg,3,23,TRUE,221,20,EAT                                    DON'T EAT,3131.6636,3125.6252,2898.6401,--,NA,right,2,NA,right,no_response,not_eat,avoid,neg,avoid-neg,NA,1,NA
sub-020,223,2,FALSE,left,avoid,neg,fungus34_crop.jpg,3,23,TRUE,222,20,EAT                                    DON'T EAT,3133.6816,3125.6252,2898.6401,--,NA,right,2,NA,right,no_response,not_eat,avoid,neg,avoid-neg,NA,1,NA
sub-020,224,2,FALSE,left,avoid,neg,fungus9_crop.jpg,3,23,TRUE,223,20,EAT                                    DON'T EAT,3135.6997,3125.6252,2898.6401,--,NA,right,2,NA,right,no_response,not_eat,avoid,neg,avoid-neg,NA,1,NA
sub-020,225,2,FALSE,left,avoid,neg,fungus14_crop.jpg,3,23,TRUE,224,20,EAT                                    DON'T EAT,3137.7185,3125.6252,2898.6401,--,NA,right,2,NA,right,no_response,not_eat,avoid,neg,avoid-neg,NA,1,NA
sub-020,226,2,FALSE,left,avoid,neg,fungus16_crop.jpg,3,23,TRUE,225,20,EAT                                    DON'T EAT,3139.7368,3125.6252,2898.6401,--,NA,right,2,NA,right,no_response,not_eat,avoid,neg,avoid-neg,NA,1,NA
sub-020,227,2,FALSE,left,avoid,neg,fungus21_crop.jpg,3,23,TRUE,226,20,EAT                                    DON'T EAT,3141.7554,3125.6252,2898.6401,--,NA,right,2,NA,right,no_response,not_eat,avoid,neg,avoid-neg,NA,1,NA
sub-020,228,2,FALSE,left,avoid,neg,fungus31_crop.jpg,3,23,TRUE,227,20,EAT                                    DON'T EAT,3143.7737,3125.6252,2898.6401,--,NA,right,2,NA,right,no_response,not_eat,avoid,neg,avoid-neg,NA,1,NA
sub-020,229,2,FALSE,left,avoid,neg,fungus3_crop.jpg,3,23,TRUE,228,20,EAT                                    DON'T EAT,3145.792,3125.6252,2898.6401,--,NA,right,2,NA,right,no_response,not_eat,avoid,neg,avoid-neg,NA,1,NA
sub-020,230,2,TRUE,left,approach,pos,cake39_crop.jpg,3,23,TRUE,229,20,EAT                                    DON'T EAT,3147.81,3125.6252,2898.6401,1,3148.6455,right,1,left,left,eat,eat,avoid,neg,avoid-neg,1,1,835.5
sub-020,231,2,FALSE,left,avoid,pos,meat37_crop.jpg,3,24,TRUE,230,20,EAT                                    DON'T EAT,3164.9077,3160.8877,2898.6401,--,NA,right,2,NA,right,no_response,not_eat,avoid,pos,avoid-pos,NA,1,NA
sub-020,232,2,FALSE,left,avoid,pos,meat24_crop.jpg,3,24,TRUE,231,20,EAT                                    DON'T EAT,3166.926,3160.8877,2898.6401,--,NA,right,2,NA,right,no_response,not_eat,avoid,pos,avoid-pos,NA,1,NA
sub-020,233,2,TRUE,left,approach,neg,insect25_crop.jpg,3,24,TRUE,232,20,EAT                                    DON'T EAT,3168.9446,3160.8877,2898.6401,1,3169.675,right,1,left,left,eat,eat,avoid,pos,avoid-pos,1,1,730.4000000003725
sub-020,234,2,FALSE,left,avoid,pos,meat6_crop.jpg,3,24,TRUE,233,20,EAT                                    DON'T EAT,3170.9626,3160.8877,2898.6401,--,NA,right,2,NA,right,no_response,not_eat,avoid,pos,avoid-pos,NA,1,NA
sub-020,235,2,TRUE,left,approach,pos,cake25_crop.jpg,3,24,TRUE,234,20,EAT                                    DON'T EAT,3172.9807,3160.8877,2898.6401,1,3173.6274,right,1,left,left,eat,eat,avoid,pos,avoid-pos,1,1,646.6999999997206
sub-020,236,2,FALSE,left,avoid,pos,meat12_crop.jpg,3,24,TRUE,235,20,EAT                                    DON'T EAT,3174.9998,3160.8877,2898.6401,--,NA,right,2,NA,right,no_response,not_eat,avoid,pos,avoid-pos,NA,1,NA
sub-020,237,2,FALSE,left,avoid,pos,meat40_crop.jpg,3,24,TRUE,236,20,EAT                                    DON'T EAT,3177.0178,3160.8877,2898.6401,--,NA,right,2,NA,right,no_response,not_eat,avoid,pos,avoid-pos,NA,1,NA
sub-020,238,2,FALSE,left,avoid,pos,meat4_crop.jpg,3,24,TRUE,237,20,EAT                                    DON'T EAT,3179.0361,3160.8877,2898.6401,--,NA,right,2,NA,right,no_response,not_eat,avoid,pos,avoid-pos,NA,1,NA
sub-020,239,2,FALSE,left,avoid,pos,meat29_crop.jpg,3,24,TRUE,238,20,EAT                                    DON'T EAT,3181.0547,3160.8877,2898.6401,--,NA,right,2,NA,right,no_response,not_eat,avoid,pos,avoid-pos,NA,1,NA
sub-020,240,2,FALSE,left,avoid,pos,meat17_crop.jpg,3,24,TRUE,239,20,EAT                                    DON'T EAT,3183.0728,3160.8877,2898.6401,--,NA,right,2,NA,right,no_response,not_eat,avoid,pos,avoid-pos,NA,1,NA
sub-020,241,2,TRUE,right,approach,pos,cake11_crop.jpg,4,25,TRUE,240,20,EAT                                    DON'T EAT,3304.6406,3300.6208,3288.613,1,3305.6416,left,1,left,left,eat,eat,avoid,neg,avoid-neg,1,1,1001
sub-020,242,2,FALSE,right,avoid,neg,fungus30_crop.jpg,4,25,TRUE,241,20,EAT                                    DON'T EAT,3306.659,3300.6208,3288.613,--,NA,left,2,NA,right,no_response,not_eat,avoid,neg,avoid-neg,NA,1,NA
sub-020,243,2,FALSE,right,avoid,neg,fungus38_crop.jpg,4,25,TRUE,242,20,EAT                                    DON'T EAT,3308.6772,3300.6208,3288.613,--,NA,left,2,NA,right,no_response,not_eat,avoid,neg,avoid-neg,NA,1,NA
sub-020,244,2,FALSE,right,avoid,neg,fungus31_crop.jpg,4,25,TRUE,243,20,EAT                                    DON'T EAT,3310.6956,3300.6208,3288.613,--,NA,left,2,NA,right,no_response,not_eat,avoid,neg,avoid-neg,NA,1,NA
sub-020,245,2,FALSE,right,avoid,neg,fungus13_crop.jpg,4,25,TRUE,244,20,EAT                                    DON'T EAT,3312.7134,3300.6208,3288.613,--,NA,left,2,NA,right,no_response,not_eat,avoid,neg,avoid-neg,NA,1,NA
sub-020,246,2,FALSE,right,avoid,neg,fungus15_crop.jpg,4,25,TRUE,245,20,EAT                                    DON'T EAT,3314.7322,3300.6208,3288.613,--,NA,left,2,NA,right,no_response,not_eat,avoid,neg,avoid-neg,NA,1,NA
sub-020,247,2,FALSE,right,avoid,neg,fungus19_crop.jpg,4,25,TRUE,246,20,EAT                                    DON'T EAT,3316.7507,3300.6208,3288.613,--,NA,left,2,NA,right,no_response,not_eat,avoid,neg,avoid-neg,NA,1,NA
sub-020,248,2,FALSE,right,avoid,neg,fungus16_crop.jpg,4,25,TRUE,247,20,EAT                                    DON'T EAT,3318.769,3300.6208,3288.613,--,NA,left,2,NA,right,no_response,not_eat,avoid,neg,avoid-neg,NA,1,NA
sub-020,249,2,FALSE,right,avoid,neg,fungus2_crop.jpg,4,25,TRUE,248,20,EAT                                    DON'T EAT,3320.7874,3300.6208,3288.613,--,NA,left,2,NA,right,no_response,not_eat,avoid,neg,avoid-neg,NA,1,NA
sub-020,250,2,TRUE,right,approach,neg,insect32_crop.jpg,4,25,TRUE,249,20,EAT                                    DON'T EAT,3322.8052,3300.6208,3288.613,1,3323.5437,left,1,left,left,eat,eat,avoid,neg,avoid-neg,1,1,738.5000000004657
sub-020,251,3,FALSE,left,avoid,neg,fungus29_crop.jpg,4,26,TRUE,250,20,EAT                                    DON'T EAT,3341.1208,3337.1006,3288.613,--,NA,left,2,NA,right,no_response,not_eat,avoid,neg,avoid-neg,NA,1,NA
sub-020,252,3,TRUE,left,approach,neg,insect32_crop.jpg,4,26,TRUE,251,20,EAT                                    DON'T EAT,3343.1384,3337.1006,3288.613,1,3343.8477,left,1,left,left,eat,eat,avoid,neg,avoid-neg,1,1,709.2999999998137
sub-020,253,3,FALSE,left,avoid,neg,fungus26_crop.jpg,4,26,TRUE,252,20,EAT                                    DON'T EAT,3345.1575,3337.1006,3288.613,--,NA,left,2,NA,right,no_response,not_eat,avoid,neg,avoid-neg,NA,1,NA
sub-020,254,3,FALSE,left,avoid,neg,fungus22_crop.jpg,4,26,TRUE,253,20,EAT                                    DON'T EAT,3347.176,3337.1006,3288.613,--,NA,left,2,NA,right,no_response,not_eat,avoid,neg,avoid-neg,NA,1,NA
sub-020,255,3,FALSE,left,avoid,neg,fungus13_crop.jpg,4,26,TRUE,254,20,EAT                                    DON'T EAT,3349.1943,3337.1006,3288.613,--,NA,left,2,NA,right,no_response,not_eat,avoid,neg,avoid-neg,NA,1,NA
sub-020,256,3,FALSE,left,avoid,neg,fungus1_crop.jpg,4,26,TRUE,255,20,EAT                                    DON'T EAT,3351.2126,3337.1006,3288.613,--,NA,left,2,NA,right,no_response,not_eat,avoid,neg,avoid-neg,NA,1,NA
sub-020,257,3,FALSE,left,avoid,neg,fungus37_crop.jpg,4,26,TRUE,256,20,EAT                                    DON'T EAT,3353.231,3337.1006,3288.613,--,NA,left,2,NA,right,no_response,not_eat,avoid,neg,avoid-neg,NA,1,NA
sub-020,258,3,FALSE,left,avoid,neg,fungus35_crop.jpg,4,26,TRUE,257,20,EAT                                    DON'T EAT,3355.2493,3337.1006,3288.613,--,NA,left,2,NA,right,no_response,not_eat,avoid,neg,avoid-neg,NA,1,NA
sub-020,259,3,TRUE,left,approach,pos,cake38_crop.jpg,4,26,TRUE,258,20,EAT                                    DON'T EAT,3357.2676,3337.1006,3288.613,1,3358.2822,left,1,left,left,eat,eat,avoid,neg,avoid-neg,1,1,1014.6000000000931
sub-020,260,3,FALSE,left,avoid,neg,fungus19_crop.jpg,4,26,TRUE,259,20,EAT                                    DON'T EAT,3359.286,3337.1006,3288.613,--,NA,left,2,NA,right,no_response,not_eat,avoid,neg,avoid-neg,NA,1,NA
sub-020,261,0,FALSE,left,avoid,neg,fungus2_crop.jpg,4,27,TRUE,260,20,EAT                                    DON'T EAT,3376.6338,3372.6135,3288.613,--,NA,left,2,NA,right,no_response,not_eat,avoid,neg,avoid-neg,NA,1,NA
sub-020,262,0,TRUE,left,approach,pos,cake18_crop.jpg,4,27,TRUE,261,20,EAT                                    DON'T EAT,3378.652,3372.6135,3288.613,1,3379.5293,left,1,left,left,eat,eat,avoid,neg,avoid-neg,1,1,877.3000000002794
sub-020,263,0,FALSE,left,avoid,neg,fungus12_crop.jpg,4,27,TRUE,262,20,EAT                                    DON'T EAT,3380.6704,3372.6135,3288.613,--,NA,left,2,NA,right,no_response,not_eat,avoid,neg,avoid-neg,NA,1,NA
sub-020,264,0,FALSE,left,avoid,neg,fungus20_crop.jpg,4,27,TRUE,263,20,EAT                                    DON'T EAT,3382.6887,3372.6135,3288.613,--,NA,left,2,NA,right,no_response,not_eat,avoid,neg,avoid-neg,NA,1,NA
sub-020,265,0,TRUE,left,approach,neg,insect6_crop.jpg,4,27,TRUE,264,20,EAT                                    DON'T EAT,3384.707,3372.6135,3288.613,1,3385.3352,left,1,left,left,eat,eat,avoid,neg,avoid-neg,1,1,628.2000000001863
sub-020,266,0,FALSE,left,avoid,neg,fungus27_crop.jpg,4,27,TRUE,265,20,EAT                                    DON'T EAT,3386.7253,3372.6135,3288.613,--,NA,left,2,NA,right,no_response,not_eat,avoid,neg,avoid-neg,NA,1,NA
sub-020,267,0,FALSE,left,avoid,neg,fungus40_crop.jpg,4,27,TRUE,266,20,EAT                                    DON'T EAT,3388.7437,3372.6135,3288.613,1,3390.269,left,1,left,left,eat,eat,avoid,neg,avoid-neg,0,0,1525.2999999998137
sub-020,268,0,FALSE,left,avoid,neg,fungus15_crop.jpg,4,27,TRUE,267,20,EAT                                    DON'T EAT,3390.7622,3372.6135,3288.613,--,NA,left,2,NA,right,no_response,not_eat,avoid,neg,avoid-neg,NA,1,NA
sub-020,269,0,FALSE,left,avoid,neg,fungus8_crop.jpg,4,27,TRUE,268,20,EAT                                    DON'T EAT,3392.78,3372.6135,3288.613,--,NA,left,2,NA,right,no_response,not_eat,avoid,neg,avoid-neg,NA,1,NA
sub-020,270,0,FALSE,left,avoid,neg,fungus17_crop.jpg,4,27,TRUE,269,20,EAT                                    DON'T EAT,3394.7986,3372.6135,3288.613,--,NA,left,2,NA,right,no_response,not_eat,avoid,neg,avoid-neg,NA,1,NA
sub-020,271,0,FALSE,left,approach,pos,cake27_crop.jpg,4,28,TRUE,270,20,EAT                                    DON'T EAT,3411.1958,3407.1758,3288.613,1,3411.905,left,1,left,left,eat,eat,approach,pos,approach-pos,1,1,709.2000000001863
sub-020,272,0,FALSE,left,approach,pos,cake4_crop.jpg,4,28,TRUE,271,20,EAT                                    DON'T EAT,3413.2136,3407.1758,3288.613,1,3413.8376,left,1,left,left,eat,eat,approach,pos,approach-pos,1,1,623.9999999995343
sub-020,273,0,TRUE,left,avoid,neg,fungus38_crop.jpg,4,28,TRUE,272,20,EAT                                    DON'T EAT,3415.2324,3407.1758,3288.613,--,NA,left,2,NA,right,no_response,not_eat,approach,pos,approach-pos,NA,1,NA
sub-020,274,0,FALSE,left,approach,pos,cake6_crop.jpg,4,28,TRUE,273,20,EAT                                    DON'T EAT,3417.2507,3407.1758,3288.613,1,3417.8835,left,1,left,left,eat,eat,approach,pos,approach-pos,1,1,632.7999999998137
sub-020,275,0,FALSE,left,approach,pos,cake20_crop.jpg,4,28,TRUE,274,20,EAT                                    DON'T EAT,3419.2693,3407.1758,3288.613,1,3419.7869,left,1,left,left,eat,eat,approach,pos,approach-pos,1,1,517.6000000000931
sub-020,276,0,FALSE,left,approach,pos,cake30_crop.jpg,4,28,TRUE,275,20,EAT                                    DON'T EAT,3421.2874,3407.1758,3288.613,1,3421.742,left,1,left,left,eat,eat,approach,pos,approach-pos,1,1,454.59999999962747
sub-020,277,0,FALSE,left,approach,pos,cake29_crop.jpg,4,28,TRUE,276,20,EAT                                    DON'T EAT,3423.3057,3407.1758,3288.613,1,3424.0364,left,1,left,left,eat,eat,approach,pos,approach-pos,1,1,730.7000000001863
sub-020,278,0,TRUE,left,avoid,pos,meat36_crop.jpg,4,28,TRUE,277,20,EAT                                    DON'T EAT,3425.3242,3407.1758,3288.613,--,NA,left,2,NA,right,no_response,not_eat,approach,pos,approach-pos,NA,1,NA
sub-020,279,0,FALSE,left,approach,pos,cake17_crop.jpg,4,28,TRUE,278,20,EAT                                    DON'T EAT,3427.3425,3407.1758,3288.613,1,3428.2332,left,1,left,left,eat,eat,approach,pos,approach-pos,1,1,890.7000000001863
sub-020,280,0,FALSE,left,approach,pos,cake28_crop.jpg,4,28,TRUE,279,20,EAT                                    DON'T EAT,3429.3608,3407.1758,3288.613,1,3430.2896,left,1,left,left,eat,eat,approach,pos,approach-pos,1,1,928.8000000002794
sub-020,281,1,FALSE,left,avoid,neg,fungus4_crop.jpg,4,29,TRUE,280,20,EAT                                    DON'T EAT,3449.044,3445.024,3288.613,--,NA,left,2,NA,right,no_response,not_eat,avoid,neg,avoid-neg,NA,1,NA
sub-020,282,1,FALSE,left,avoid,neg,fungus5_crop.jpg,4,29,TRUE,281,20,EAT                                    DON'T EAT,3451.062,3445.024,3288.613,--,NA,left,2,NA,right,no_response,not_eat,avoid,neg,avoid-neg,NA,1,NA
sub-020,283,1,FALSE,left,avoid,neg,fungus30_crop.jpg,4,29,TRUE,282,20,EAT                                    DON'T EAT,3453.08,3445.024,3288.613,--,NA,left,2,NA,right,no_response,not_eat,avoid,neg,avoid-neg,NA,1,NA
sub-020,284,1,FALSE,left,avoid,neg,fungus32_crop.jpg,4,29,TRUE,283,20,EAT                                    DON'T EAT,3455.0989,3445.024,3288.613,--,NA,left,2,NA,right,no_response,not_eat,avoid,neg,avoid-neg,NA,1,NA
sub-020,285,1,FALSE,left,avoid,neg,fungus36_crop.jpg,4,29,TRUE,284,20,EAT                                    DON'T EAT,3457.1172,3445.024,3288.613,--,NA,left,2,NA,right,no_response,not_eat,avoid,neg,avoid-neg,NA,1,NA
sub-020,286,1,TRUE,left,approach,neg,insect2_crop.jpg,4,29,TRUE,285,20,EAT                                    DON'T EAT,3459.1353,3445.024,3288.613,1,3459.9902,left,1,left,left,eat,eat,avoid,neg,avoid-neg,1,1,854.9000000003725
sub-020,287,1,FALSE,left,avoid,neg,fungus25_crop.jpg,4,29,TRUE,286,20,EAT                                    DON'T EAT,3461.154,3445.024,3288.613,--,NA,left,2,NA,right,no_response,not_eat,avoid,neg,avoid-neg,NA,1,NA
sub-020,288,1,FALSE,left,avoid,neg,fungus39_crop.jpg,4,29,TRUE,287,20,EAT                                    DON'T EAT,3463.1716,3445.024,3288.613,--,NA,left,2,NA,right,no_response,not_eat,avoid,neg,avoid-neg,NA,1,NA
sub-020,289,1,FALSE,left,avoid,neg,fungus18_crop.jpg,4,29,TRUE,288,20,EAT                                    DON'T EAT,3465.1907,3445.024,3288.613,--,NA,left,2,NA,right,no_response,not_eat,avoid,neg,avoid-neg,NA,1,NA
sub-020,290,1,TRUE,left,approach,pos,cake34_crop.jpg,4,29,TRUE,289,20,EAT                                    DON'T EAT,3467.209,3445.024,3288.613,1,3468.1929,left,1,left,left,eat,eat,avoid,neg,avoid-neg,1,1,983.8999999999069
sub-020,291,2,FALSE,right,approach,pos,cake28_crop.jpg,4,30,TRUE,290,20,EAT                                    DON'T EAT,3484.44,3480.4197,3288.613,1,3485.3179,left,1,left,left,eat,eat,approach,pos,approach-pos,1,1,877.8999999999069
sub-020,292,2,FALSE,right,approach,pos,cake27_crop.jpg,4,30,TRUE,291,20,EAT                                    DON'T EAT,3486.4583,3480.4197,3288.613,1,3487.0493,left,1,left,left,eat,eat,approach,pos,approach-pos,1,1,591.0000000004657
sub-020,293,2,TRUE,right,avoid,pos,meat28_crop.jpg,4,30,TRUE,292,20,EAT                                    DON'T EAT,3488.4763,3480.4197,3288.613,--,NA,left,2,NA,right,no_response,not_eat,approach,pos,approach-pos,NA,1,NA
sub-020,294,2,FALSE,right,approach,pos,cake14_crop.jpg,4,30,TRUE,293,20,EAT                                    DON'T EAT,3490.4949,3480.4197,3288.613,1,3491.3188,left,1,left,left,eat,eat,approach,pos,approach-pos,1,1,823.8999999994412
sub-020,295,2,FALSE,right,approach,pos,cake10_crop.jpg,4,30,TRUE,294,20,EAT                                    DON'T EAT,3492.5132,3480.4197,3288.613,1,3493.2332,left,1,left,left,eat,eat,approach,pos,approach-pos,1,1,720.0000000004657
sub-020,296,2,TRUE,right,avoid,neg,fungus33_crop.jpg,4,30,TRUE,295,20,EAT                                    DON'T EAT,3494.5317,3480.4197,3288.613,--,NA,left,2,NA,right,no_response,not_eat,approach,pos,approach-pos,NA,1,NA
sub-020,297,2,FALSE,right,approach,pos,cake9_crop.jpg,4,30,TRUE,296,20,EAT                                    DON'T EAT,3496.5498,3480.4197,3288.613,1,3497.112,left,1,left,left,eat,eat,approach,pos,approach-pos,1,1,562.2000000001863
sub-020,298,2,FALSE,right,approach,pos,cake1_crop.jpg,4,30,TRUE,297,20,EAT                                    DON'T EAT,3498.5684,3480.4197,3288.613,1,3499.3877,left,1,left,left,eat,eat,approach,pos,approach-pos,1,1,819.3000000002794
sub-020,299,2,FALSE,right,approach,pos,cake2_crop.jpg,4,30,TRUE,298,20,EAT                                    DON'T EAT,3500.5867,3480.4197,3288.613,1,3501.1484,left,1,left,left,eat,eat,approach,pos,approach-pos,1,1,561.7000000001863
sub-020,300,2,FALSE,right,approach,pos,cake39_crop.jpg,4,30,TRUE,299,20,EAT                                    DON'T EAT,3502.6047,3480.4197,3288.613,1,3503.2053,left,1,left,left,eat,eat,approach,pos,approach-pos,1,1,600.6000000005588
sub-020,301,3,FALSE,left,approach,neg,insect38_crop.jpg,4,31,TRUE,300,20,EAT                                    DON'T EAT,3520.6868,3516.6665,3288.613,1,3521.7263,left,1,left,left,eat,eat,approach,neg,approach-neg,1,1,1039.5
sub-020,302,3,FALSE,left,approach,neg,insect16_crop.jpg,4,31,TRUE,301,20,EAT                                    DON'T EAT,3522.705,3516.6665,3288.613,1,3523.3486,left,1,left,left,eat,eat,approach,neg,approach-neg,1,1,643.5999999996275
sub-020,303,3,TRUE,left,avoid,neg,fungus11_crop.jpg,4,31,TRUE,302,20,EAT                                    DON'T EAT,3524.7234,3516.6665,3288.613,--,NA,left,2,NA,right,no_response,not_eat,approach,neg,approach-neg,NA,1,NA
sub-020,304,3,FALSE,left,approach,neg,insect4_crop.jpg,4,31,TRUE,303,20,EAT                                    DON'T EAT,3526.7417,3516.6665,3288.613,1,3527.3853,left,1,left,left,eat,eat,approach,neg,approach-neg,1,1,643.5999999996275
sub-020,305,3,FALSE,left,approach,neg,insect26_crop.jpg,4,31,TRUE,304,20,EAT                                    DON'T EAT,3528.76,3516.6665,3288.613,1,3529.617,left,1,left,left,eat,eat,approach,neg,approach-neg,1,1,857
sub-020,306,3,FALSE,left,approach,neg,insect29_crop.jpg,4,31,TRUE,305,20,EAT                                    DON'T EAT,3530.7783,3516.6665,3288.613,1,3531.4539,left,1,left,left,eat,eat,approach,neg,approach-neg,1,1,675.6000000000931
sub-020,307,3,FALSE,left,approach,neg,insect30_crop.jpg,4,31,TRUE,306,20,EAT                                    DON'T EAT,3532.7964,3516.6665,3288.613,1,3533.6025,left,1,left,left,eat,eat,approach,neg,approach-neg,1,1,806.0999999996275
sub-020,308,3,TRUE,left,avoid,pos,meat22_crop.jpg,4,31,TRUE,307,20,EAT                                    DON'T EAT,3534.815,3516.6665,3288.613,--,NA,left,2,NA,right,no_response,not_eat,approach,neg,approach-neg,NA,1,NA
sub-020,309,3,FALSE,left,approach,neg,insect33_crop.jpg,4,31,TRUE,308,20,EAT                                    DON'T EAT,3536.8333,3516.6665,3288.613,1,3537.5667,left,1,left,left,eat,eat,approach,neg,approach-neg,1,1,733.3999999999069
sub-020,310,3,FALSE,left,approach,neg,insect14_crop.jpg,4,31,TRUE,309,20,EAT                                    DON'T EAT,3538.8518,3516.6665,3288.613,1,3539.6147,left,1,left,left,eat,eat,approach,neg,approach-neg,1,1,762.9000000003725
sub-020,311,0,TRUE,right,approach,pos,cake38_crop.jpg,4,32,TRUE,310,20,EAT                                    DON'T EAT,3557.117,3553.0964,3288.613,1,3557.9114,left,1,left,left,eat,eat,avoid,neg,avoid-neg,1,1,794.3999999999069
sub-020,312,0,FALSE,right,avoid,neg,fungus7_crop.jpg,4,32,TRUE,311,20,EAT                                    DON'T EAT,3559.135,3553.0964,3288.613,--,NA,left,2,NA,right,no_response,not_eat,avoid,neg,avoid-neg,NA,1,NA
sub-020,313,0,FALSE,right,avoid,neg,fungus27_crop.jpg,4,32,TRUE,312,20,EAT                                    DON'T EAT,3561.1536,3553.0964,3288.613,--,NA,left,2,NA,right,no_response,not_eat,avoid,neg,avoid-neg,NA,1,NA
sub-020,314,0,FALSE,right,avoid,neg,fungus25_crop.jpg,4,32,TRUE,313,20,EAT                                    DON'T EAT,3563.1714,3553.0964,3288.613,--,NA,left,2,NA,right,no_response,not_eat,avoid,neg,avoid-neg,NA,1,NA
sub-020,315,0,TRUE,right,approach,neg,insect18_crop.jpg,4,32,TRUE,314,20,EAT                                    DON'T EAT,3565.1904,3553.0964,3288.613,1,3566.08,left,1,left,left,eat,eat,avoid,neg,avoid-neg,1,1,889.6000000000931
sub-020,316,0,FALSE,right,avoid,neg,fungus22_crop.jpg,4,32,TRUE,315,20,EAT                                    DON'T EAT,3567.2087,3553.0964,3288.613,--,NA,left,2,NA,right,no_response,not_eat,avoid,neg,avoid-neg,NA,1,NA
sub-020,317,0,FALSE,right,avoid,neg,fungus24_crop.jpg,4,32,TRUE,316,20,EAT                                    DON'T EAT,3569.227,3553.0964,3288.613,--,NA,left,2,NA,right,no_response,not_eat,avoid,neg,avoid-neg,NA,1,NA
sub-020,318,0,FALSE,right,avoid,neg,fungus37_crop.jpg,4,32,TRUE,317,20,EAT                                    DON'T EAT,3571.2454,3553.0964,3288.613,--,NA,left,2,NA,right,no_response,not_eat,avoid,neg,avoid-neg,NA,1,NA
sub-020,319,0,FALSE,right,avoid,neg,fungus32_crop.jpg,4,32,TRUE,318,20,EAT                                    DON'T EAT,3573.2632,3553.0964,3288.613,--,NA,left,2,NA,right,no_response,not_eat,avoid,neg,avoid-neg,NA,1,NA
sub-020,320,0,FALSE,right,avoid,neg,fungus10_crop.jpg,4,32,TRUE,319,20,EAT                                    DON'T EAT,3575.2817,3553.0964,3288.613,--,NA,left,2,NA,right,no_response,not_eat,avoid,neg,avoid-neg,NA,1,NA
