subject,trial_number,n_block,catch,hand,mot,val,stim_name,run_number,num_block,ran,order,response,time_of_response,subject_number,left_side_resp_label,trial_onset,blk_instr_onset,baseline_onset,response_hand,response_cleaned,response_lat,response_lat_cleaned,response_meaning,response_meaning_cleaned,condition_mot,condition_val,condition,correct,correct_cleaned,rt
sub-055,1,3,FALSE,right,approach,pos,cake13_crop.jpg,1,1,TRUE,0,2,336.34854,55,DON'T EAT                                    EAT,334.73944,330.7193,318.77112,left,2,right,right,eat,eat,approach,pos,approach-pos,1,1,1609.100000000035
sub-055,2,3,FALSE,right,approach,pos,cake17_crop.jpg,1,1,TRUE,1,2,337.6334,55,DON'T EAT                                    EAT,336.75772,330.7193,318.77112,left,2,right,right,eat,eat,approach,pos,approach-pos,1,1,875.679999999993
sub-055,3,3,FALSE,right,approach,pos,cake20_crop.jpg,1,1,TRUE,2,2,339.52835,55,DON'T EAT                                    EAT,338.776,330.7193,318.77112,left,2,right,right,eat,eat,approach,pos,approach-pos,1,1,752.3499999999767
sub-055,4,3,TRUE,right,avoid,neg,fungus34_crop.jpg,1,1,TRUE,3,1,342.05035,55,DON'T EAT                                    EAT,340.79434,330.7193,318.77112,left,1,left,left,not_eat,not_eat,approach,pos,approach-pos,1,1,1256.0100000000093
sub-055,5,3,FALSE,right,approach,pos,cake32_crop.jpg,1,1,TRUE,4,2,343.71906,55,DON'T EAT                                    EAT,342.81552,330.7193,318.77112,left,2,right,right,eat,eat,approach,pos,approach-pos,1,1,903.539999999979
sub-055,6,3,FALSE,right,approach,pos,cake40_crop.jpg,1,1,TRUE,5,2,345.46774,55,DON'T EAT                                    EAT,344.83304,330.7193,318.77112,left,2,right,right,eat,eat,approach,pos,approach-pos,1,1,634.7000000000116
sub-055,7,3,FALSE,right,approach,pos,cake23_crop.jpg,1,1,TRUE,6,2,347.69586,55,DON'T EAT                                    EAT,346.8494,330.7193,318.77112,left,2,right,right,eat,eat,approach,pos,approach-pos,1,1,846.4599999999627
sub-055,8,3,TRUE,right,avoid,pos,meat35_crop.jpg,1,1,TRUE,7,1,349.9131,55,DON'T EAT                                    EAT,348.86783,330.7193,318.77112,left,1,left,left,not_eat,not_eat,approach,pos,approach-pos,1,1,1045.2699999999604
sub-055,9,3,FALSE,right,approach,pos,cake12_crop.jpg,1,1,TRUE,8,2,351.6688,55,DON'T EAT                                    EAT,350.88614,330.7193,318.77112,left,2,right,right,eat,eat,approach,pos,approach-pos,1,1,782.6599999999744
sub-055,10,3,FALSE,right,approach,pos,cake29_crop.jpg,1,1,TRUE,9,2,353.62738,55,DON'T EAT                                    EAT,352.90445,330.7193,318.77112,left,2,right,right,eat,eat,approach,pos,approach-pos,1,1,722.929999999993
sub-055,11,1,FALSE,right,avoid,pos,meat31_crop.jpg,1,2,TRUE,10,1,370.9729,55,DON'T EAT                                    EAT,369.18463,365.16434,318.77112,left,1,left,left,not_eat,not_eat,avoid,pos,avoid-pos,1,1,1788.2699999999604
sub-055,12,1,TRUE,right,approach,pos,cake37_crop.jpg,1,2,TRUE,11,2,372.13226,55,DON'T EAT                                    EAT,371.20276,365.16434,318.77112,left,2,right,right,eat,eat,avoid,pos,avoid-pos,1,1,929.4999999999418
sub-055,13,1,TRUE,right,approach,neg,insect21_crop.jpg,1,2,TRUE,12,2,374.2639,55,DON'T EAT                                    EAT,373.22107,365.16434,318.77112,left,2,right,right,eat,eat,avoid,pos,avoid-pos,1,1,1042.829999999958
sub-055,14,1,FALSE,right,avoid,pos,meat39_crop.jpg,1,2,TRUE,13,1,376.2428,55,DON'T EAT                                    EAT,375.23978,365.16434,318.77112,left,1,left,left,not_eat,not_eat,avoid,pos,avoid-pos,1,1,1003.0200000000186
sub-055,15,1,FALSE,right,avoid,pos,meat5_crop.jpg,1,2,TRUE,14,1,378.1888,55,DON'T EAT                                    EAT,377.25803,365.16434,318.77112,left,1,left,left,not_eat,not_eat,avoid,pos,avoid-pos,1,1,930.7699999999604
sub-055,16,1,FALSE,right,avoid,pos,meat7_crop.jpg,1,2,TRUE,15,1,380.13327,55,DON'T EAT                                    EAT,379.2764,365.16434,318.77112,left,1,left,left,not_eat,not_eat,avoid,pos,avoid-pos,1,1,856.8699999999371
sub-055,17,1,FALSE,right,avoid,pos,meat37_crop.jpg,1,2,TRUE,16,1,382.04593,55,DON'T EAT                                    EAT,381.2947,365.16434,318.77112,left,1,left,left,not_eat,not_eat,avoid,pos,avoid-pos,1,1,751.2300000000396
sub-055,18,1,FALSE,right,avoid,pos,meat20_crop.jpg,1,2,TRUE,17,1,384.1965,55,DON'T EAT                                    EAT,383.31274,365.16434,318.77112,left,1,left,left,not_eat,not_eat,avoid,pos,avoid-pos,1,1,883.7600000000093
sub-055,19,1,FALSE,right,avoid,pos,meat2_crop.jpg,1,2,TRUE,18,1,386.13647,55,DON'T EAT                                    EAT,385.33142,365.16434,318.77112,left,1,left,left,not_eat,not_eat,avoid,pos,avoid-pos,1,1,805.0499999999884
sub-055,20,1,FALSE,right,avoid,pos,meat28_crop.jpg,1,2,TRUE,19,1,388.17380000000003,55,DON'T EAT                                    EAT,387.34988,365.16434,318.77112,left,1,left,left,not_eat,not_eat,avoid,pos,avoid-pos,1,1,823.9200000000419
sub-055,21,3,FALSE,right,avoid,pos,meat36_crop.jpg,1,3,TRUE,20,1,405.3971,55,DON'T EAT                                    EAT,404.23026,400.21017,318.77112,left,1,left,left,not_eat,not_eat,avoid,pos,avoid-pos,1,1,1166.8400000000256
sub-055,22,3,TRUE,right,approach,neg,insect37_crop.jpg,1,3,TRUE,21,2,407.29697,55,DON'T EAT                                    EAT,406.2489,400.21017,318.77112,left,2,right,right,eat,eat,avoid,pos,avoid-pos,1,1,1048.070000000007
sub-055,23,3,FALSE,right,avoid,pos,meat4_crop.jpg,1,3,TRUE,22,1,409.4752,55,DON'T EAT                                    EAT,408.2672,400.21017,318.77112,left,1,left,left,not_eat,not_eat,avoid,pos,avoid-pos,1,1,1207.9999999999418
sub-055,24,3,FALSE,right,avoid,pos,meat23_crop.jpg,1,3,TRUE,23,1,411.20636,55,DON'T EAT                                    EAT,410.2855,400.21017,318.77112,left,1,left,left,not_eat,not_eat,avoid,pos,avoid-pos,1,1,920.8600000000442
sub-055,25,3,FALSE,right,avoid,pos,meat9_crop.jpg,1,3,TRUE,24,1,413.50644,55,DON'T EAT                                    EAT,412.30374,400.21017,318.77112,left,1,left,left,not_eat,not_eat,avoid,pos,avoid-pos,1,1,1202.7000000000116
sub-055,26,3,FALSE,right,avoid,pos,meat8_crop.jpg,1,3,TRUE,25,1,415.12854,55,DON'T EAT                                    EAT,414.32202,400.21017,318.77112,left,1,left,left,not_eat,not_eat,avoid,pos,avoid-pos,1,1,806.5199999999604
sub-055,27,3,FALSE,right,avoid,pos,meat19_crop.jpg,1,3,TRUE,26,1,416.87756,55,DON'T EAT                                    EAT,416.3407,400.21017,318.77112,left,1,left,left,not_eat,not_eat,avoid,pos,avoid-pos,1,1,536.859999999986
sub-055,28,3,TRUE,right,approach,pos,cake11_crop.jpg,1,3,TRUE,27,2,419.0048,55,DON'T EAT                                    EAT,418.3588,400.21017,318.77112,left,2,right,right,eat,eat,avoid,pos,avoid-pos,1,1,646
sub-055,29,3,FALSE,right,avoid,pos,meat26_crop.jpg,1,3,TRUE,28,1,420.914,55,DON'T EAT                                    EAT,420.37726,400.21017,318.77112,left,1,left,left,not_eat,not_eat,avoid,pos,avoid-pos,1,1,536.7400000000489
sub-055,30,3,FALSE,right,avoid,pos,meat34_crop.jpg,1,3,TRUE,29,1,423.31705,55,DON'T EAT                                    EAT,422.39548,400.21017,318.77112,left,1,left,left,not_eat,not_eat,avoid,pos,avoid-pos,1,1,921.5699999999488
sub-055,31,2,FALSE,left,avoid,pos,meat33_crop.jpg,1,4,TRUE,30,1,442.0113,55,DON'T EAT                                    EAT,440.91092,436.8909,318.77112,left,1,left,left,not_eat,not_eat,avoid,pos,avoid-pos,1,1,1100.3800000000047
sub-055,32,2,FALSE,left,avoid,pos,meat28_crop.jpg,1,4,TRUE,31,1,443.47662,55,DON'T EAT                                    EAT,442.92926,436.8909,318.77112,left,1,left,left,not_eat,not_eat,avoid,pos,avoid-pos,1,1,547.3600000000442
sub-055,33,2,FALSE,left,avoid,pos,meat22_crop.jpg,1,4,TRUE,32,1,445.44318,55,DON'T EAT                                    EAT,444.94757,436.8909,318.77112,left,1,left,left,not_eat,not_eat,avoid,pos,avoid-pos,1,1,495.60999999998603
sub-055,34,2,FALSE,left,avoid,pos,meat30_crop.jpg,1,4,TRUE,33,1,447.63098,55,DON'T EAT                                    EAT,446.96594,436.8909,318.77112,left,1,left,left,not_eat,not_eat,avoid,pos,avoid-pos,1,1,665.0400000000373
sub-055,35,2,FALSE,left,avoid,pos,meat29_crop.jpg,1,4,TRUE,34,1,449.5149,55,DON'T EAT                                    EAT,448.98425,436.8909,318.77112,left,1,left,left,not_eat,not_eat,avoid,pos,avoid-pos,1,1,530.6500000000233
sub-055,36,2,FALSE,left,avoid,pos,meat26_crop.jpg,1,4,TRUE,35,1,451.47122,55,DON'T EAT                                    EAT,451.00244,436.8909,318.77112,left,1,left,left,not_eat,not_eat,avoid,pos,avoid-pos,1,1,468.78000000002794
sub-055,37,2,TRUE,left,approach,pos,cake13_crop.jpg,1,4,TRUE,36,2,453.83313,55,DON'T EAT                                    EAT,453.021,436.8909,318.77112,left,2,right,right,eat,eat,avoid,pos,avoid-pos,1,1,812.1300000000047
sub-055,38,2,FALSE,left,avoid,pos,meat3_crop.jpg,1,4,TRUE,37,1,455.64825,55,DON'T EAT                                    EAT,455.0393,436.8909,318.77112,left,1,left,left,not_eat,not_eat,avoid,pos,avoid-pos,1,1,608.9499999999534
sub-055,39,2,TRUE,left,approach,neg,insect35_crop.jpg,1,4,TRUE,38,2,457.72534,55,DON'T EAT                                    EAT,457.05722,436.8909,318.77112,left,2,right,right,eat,eat,avoid,pos,avoid-pos,1,1,668.1200000000536
sub-055,40,2,FALSE,left,avoid,pos,meat20_crop.jpg,1,4,TRUE,39,1,459.67902,55,DON'T EAT                                    EAT,459.0759,436.8909,318.77112,left,1,left,left,not_eat,not_eat,avoid,pos,avoid-pos,1,1,603.1199999999953
sub-055,41,0,TRUE,right,avoid,neg,fungus23_crop.jpg,1,5,TRUE,40,1,477.06128,55,DON'T EAT                                    EAT,475.58972,471.56934,318.77112,left,1,left,left,not_eat,not_eat,approach,neg,approach-neg,1,1,1471.5600000000559
sub-055,42,0,FALSE,right,approach,neg,insect18_crop.jpg,1,5,TRUE,41,2,478.33804,55,DON'T EAT                                    EAT,477.60803,471.56934,318.77112,left,2,right,right,eat,eat,approach,neg,approach-neg,1,1,730.0100000000093
sub-055,43,0,FALSE,right,approach,neg,insect8_crop.jpg,1,5,TRUE,42,2,480.3541,55,DON'T EAT                                    EAT,479.62634,471.56934,318.77112,left,2,right,right,eat,eat,approach,neg,approach-neg,1,1,727.7600000000093
sub-055,44,0,TRUE,right,avoid,pos,meat17_crop.jpg,1,5,TRUE,43,1,482.57263,55,DON'T EAT                                    EAT,481.64465,471.56934,318.77112,left,1,left,left,not_eat,not_eat,approach,neg,approach-neg,1,1,927.9799999999814
sub-055,45,0,FALSE,right,approach,neg,insect38_crop.jpg,1,5,TRUE,44,2,484.28616,55,DON'T EAT                                    EAT,483.66245,471.56934,318.77112,left,2,right,right,eat,eat,approach,neg,approach-neg,1,1,623.710000000021
sub-055,46,0,FALSE,right,approach,neg,insect13_crop.jpg,1,5,TRUE,45,2,486.22382,55,DON'T EAT                                    EAT,485.6809,471.56934,318.77112,left,2,right,right,eat,eat,approach,neg,approach-neg,1,1,542.9199999999837
sub-055,47,0,FALSE,right,approach,neg,insect14_crop.jpg,1,5,TRUE,46,2,488.1583,55,DON'T EAT                                    EAT,487.69983,471.56934,318.77112,left,2,right,right,eat,eat,approach,neg,approach-neg,1,1,458.46999999997206
sub-055,48,0,FALSE,right,approach,neg,insect27_crop.jpg,1,5,TRUE,47,2,490.231,55,DON'T EAT                                    EAT,489.71762,471.56934,318.77112,left,2,right,right,eat,eat,approach,neg,approach-neg,1,1,513.3800000000047
sub-055,49,0,FALSE,right,approach,neg,insect29_crop.jpg,1,5,TRUE,48,2,492.27267,55,DON'T EAT                                    EAT,491.73596,471.56934,318.77112,left,2,right,right,eat,eat,approach,neg,approach-neg,1,1,536.710000000021
sub-055,50,0,FALSE,right,approach,neg,insect5_crop.jpg,1,5,TRUE,49,2,494.29498,55,DON'T EAT                                    EAT,493.7544,471.56934,318.77112,left,2,right,right,eat,eat,approach,neg,approach-neg,1,1,540.5800000000163
sub-055,51,2,FALSE,left,approach,neg,insect9_crop.jpg,1,6,TRUE,50,2,513.1913,55,DON'T EAT                                    EAT,512.2201,508.2003,318.77112,left,2,right,right,eat,eat,approach,neg,approach-neg,1,1,971.1999999999534
sub-055,52,2,FALSE,left,approach,neg,insect28_crop.jpg,1,6,TRUE,51,2,514.8927,55,DON'T EAT                                    EAT,514.2379,508.2003,318.77112,left,2,right,right,eat,eat,approach,neg,approach-neg,1,1,654.8000000000466
sub-055,53,2,FALSE,left,approach,neg,insect40_crop.jpg,1,6,TRUE,52,2,516.8513,55,DON'T EAT                                    EAT,516.2568,508.2003,318.77112,left,2,right,right,eat,eat,approach,neg,approach-neg,1,1,594.5000000000582
sub-055,54,2,FALSE,left,approach,neg,insect7_crop.jpg,1,6,TRUE,53,2,518.7872,55,DON'T EAT                                    EAT,518.27515,508.2003,318.77112,left,2,right,right,eat,eat,approach,neg,approach-neg,1,1,512.0499999999302
sub-055,55,2,FALSE,left,approach,neg,insect38_crop.jpg,1,6,TRUE,54,2,520.7386,55,DON'T EAT                                    EAT,520.2934,508.2003,318.77112,left,2,right,right,eat,eat,approach,neg,approach-neg,1,1,445.20000000001164
sub-055,56,2,TRUE,left,avoid,neg,fungus9_crop.jpg,1,6,TRUE,55,1,523.1366,55,DON'T EAT                                    EAT,522.3116,508.2003,318.77112,left,1,left,left,not_eat,not_eat,approach,neg,approach-neg,1,1,825.0000000000582
sub-055,57,2,FALSE,left,approach,neg,insect36_crop.jpg,1,6,TRUE,56,2,525.0164,55,DON'T EAT                                    EAT,524.32996,508.2003,318.77112,left,2,right,right,eat,eat,approach,neg,approach-neg,1,1,686.4399999999441
sub-055,58,2,FALSE,left,approach,neg,insect32_crop.jpg,1,6,TRUE,57,2,526.87415,55,DON'T EAT                                    EAT,526.3486,508.2003,318.77112,left,2,right,right,eat,eat,approach,neg,approach-neg,1,1,525.5500000000466
sub-055,59,2,TRUE,left,avoid,pos,meat14_crop.jpg,1,6,TRUE,58,1,529.1374,55,DON'T EAT                                    EAT,528.3669,508.2003,318.77112,left,1,left,left,not_eat,not_eat,approach,neg,approach-neg,1,1,770.4999999998836
sub-055,60,2,FALSE,left,approach,neg,insect37_crop.jpg,1,6,TRUE,59,2,531.06244,55,DON'T EAT                                    EAT,530.385,508.2003,318.77112,left,2,right,right,eat,eat,approach,neg,approach-neg,1,1,677.4400000000605
sub-055,61,0,FALSE,right,avoid,neg,fungus14_crop.jpg,1,7,TRUE,60,1,551.287,55,DON'T EAT                                    EAT,549.78436,545.7646,318.77112,left,1,left,left,not_eat,not_eat,avoid,neg,avoid-neg,1,1,1502.640000000014
sub-055,62,0,FALSE,right,avoid,neg,fungus3_crop.jpg,1,7,TRUE,61,1,553.7401,55,DON'T EAT                                    EAT,551.80273,545.7646,318.77112,left,1,left,left,not_eat,not_eat,avoid,neg,avoid-neg,1,1,1937.3699999999953
sub-055,63,0,FALSE,right,avoid,neg,fungus8_crop.jpg,1,7,TRUE,62,1,554.9237,55,DON'T EAT                                    EAT,553.82086,545.7646,318.77112,left,1,left,left,not_eat,not_eat,avoid,neg,avoid-neg,1,1,1102.8400000000838
sub-055,64,0,FALSE,right,avoid,neg,fungus25_crop.jpg,1,7,TRUE,63,1,557.20123,55,DON'T EAT                                    EAT,555.8398,545.7646,318.77112,left,1,left,left,not_eat,not_eat,avoid,neg,avoid-neg,1,1,1361.4300000000512
sub-055,65,0,FALSE,right,avoid,neg,fungus35_crop.jpg,1,7,TRUE,64,1,558.7031,55,DON'T EAT                                    EAT,557.858,545.7646,318.77112,left,1,left,left,not_eat,not_eat,avoid,neg,avoid-neg,1,1,845.0999999999767
sub-055,66,0,FALSE,right,avoid,neg,fungus20_crop.jpg,1,7,TRUE,65,1,560.7767,55,DON'T EAT                                    EAT,559.8763,545.7646,318.77112,left,1,left,left,not_eat,not_eat,avoid,neg,avoid-neg,1,1,900.3999999999069
sub-055,67,0,FALSE,right,avoid,neg,fungus13_crop.jpg,1,7,TRUE,66,1,562.8546,55,DON'T EAT                                    EAT,561.89465,545.7646,318.77112,left,1,left,left,not_eat,not_eat,avoid,neg,avoid-neg,1,1,959.9500000000698
sub-055,68,0,TRUE,right,approach,neg,insect17_crop.jpg,1,7,TRUE,67,2,564.7143,55,DON'T EAT                                    EAT,563.91254,545.7646,318.77112,left,2,right,right,eat,eat,avoid,neg,avoid-neg,1,1,801.7599999998929
sub-055,69,0,TRUE,right,approach,pos,cake9_crop.jpg,1,7,TRUE,68,2,566.7259,55,DON'T EAT                                    EAT,565.9314,545.7646,318.77112,left,2,right,right,eat,eat,avoid,neg,avoid-neg,1,1,794.5
sub-055,70,0,FALSE,right,avoid,neg,fungus36_crop.jpg,1,7,TRUE,69,1,568.81647,55,DON'T EAT                                    EAT,567.9498,545.7646,318.77112,left,1,left,left,not_eat,not_eat,avoid,neg,avoid-neg,1,1,866.6700000000419
sub-055,71,3,FALSE,left,approach,neg,insect2_crop.jpg,1,8,TRUE,70,2,588.61224,55,DON'T EAT                                    EAT,587.68274,583.66235,318.77112,left,2,right,right,eat,eat,approach,neg,approach-neg,1,1,929.5
sub-055,72,3,FALSE,left,approach,neg,insect24_crop.jpg,1,8,TRUE,71,2,590.2722,55,DON'T EAT                                    EAT,589.7011,583.66235,318.77112,left,2,right,right,eat,eat,approach,neg,approach-neg,1,1,571.0999999999767
sub-055,73,3,TRUE,left,avoid,neg,fungus36_crop.jpg,1,8,TRUE,72,1,592.3607,55,DON'T EAT                                    EAT,591.7195,583.66235,318.77112,left,1,left,left,not_eat,not_eat,approach,neg,approach-neg,1,1,641.1999999999534
sub-055,74,3,FALSE,left,approach,neg,insect6_crop.jpg,1,8,TRUE,73,2,594.35443,55,DON'T EAT                                    EAT,593.7372,583.66235,318.77112,left,2,right,right,eat,eat,approach,neg,approach-neg,1,1,617.229999999865
sub-055,75,3,FALSE,left,approach,neg,insect15_crop.jpg,1,8,TRUE,74,2,596.32544,55,DON'T EAT                                    EAT,595.7561,583.66235,318.77112,left,2,right,right,eat,eat,approach,neg,approach-neg,1,1,569.3399999999674
sub-055,76,3,FALSE,left,approach,neg,insect18_crop.jpg,1,8,TRUE,75,2,598.22784,55,DON'T EAT                                    EAT,597.77496,583.66235,318.77112,left,2,right,right,eat,eat,approach,neg,approach-neg,1,1,452.88000000000466
sub-055,77,3,FALSE,left,approach,neg,insect20_crop.jpg,1,8,TRUE,76,2,600.24603,55,DON'T EAT                                    EAT,599.79285,583.66235,318.77112,left,2,right,right,eat,eat,approach,neg,approach-neg,1,1,453.1799999999348
sub-055,78,3,FALSE,left,approach,neg,insect25_crop.jpg,1,8,TRUE,77,2,602.3191,55,DON'T EAT                                    EAT,601.8112,583.66235,318.77112,left,2,right,right,eat,eat,approach,neg,approach-neg,1,1,507.9000000001397
sub-055,79,3,FALSE,left,approach,neg,insect27_crop.jpg,1,8,TRUE,78,2,604.2307,55,DON'T EAT                                    EAT,603.8291,583.66235,318.77112,left,2,right,right,eat,eat,approach,neg,approach-neg,1,1,401.5999999998603
sub-055,80,3,TRUE,left,avoid,pos,meat35_crop.jpg,1,8,TRUE,79,1,606.5653,55,DON'T EAT                                    EAT,605.84784,583.66235,318.77112,left,1,left,left,not_eat,not_eat,approach,neg,approach-neg,1,1,717.4599999999627
sub-055,81,1,FALSE,right,avoid,neg,fungus24_crop.jpg,2,9,TRUE,80,1,747.3175,55,DON'T EAT                                    EAT,746.3979,742.3773,729.05817,right,1,left,left,not_eat,not_eat,avoid,neg,avoid-neg,1,1,919.5999999999767
sub-055,82,1,FALSE,right,avoid,neg,fungus22_crop.jpg,2,9,TRUE,81,1,749.1436,55,DON'T EAT                                    EAT,748.41626,742.3773,729.05817,right,1,left,left,not_eat,not_eat,avoid,neg,avoid-neg,1,1,727.3399999999674
sub-055,83,1,FALSE,right,avoid,neg,fungus31_crop.jpg,2,9,TRUE,82,1,751.2574,55,DON'T EAT                                    EAT,750.43463,742.3773,729.05817,right,1,left,left,not_eat,not_eat,avoid,neg,avoid-neg,1,1,822.7699999999022
sub-055,84,1,FALSE,right,avoid,neg,fungus7_crop.jpg,2,9,TRUE,83,1,753.0532,55,DON'T EAT                                    EAT,752.45276,742.3773,729.05817,right,1,left,left,not_eat,not_eat,avoid,neg,avoid-neg,1,1,600.4399999999441
sub-055,85,1,FALSE,right,avoid,neg,fungus19_crop.jpg,2,9,TRUE,84,1,755.06323,55,DON'T EAT                                    EAT,754.4712,742.3773,729.05817,right,1,left,left,not_eat,not_eat,avoid,neg,avoid-neg,1,1,592.0300000000279
sub-055,86,1,FALSE,right,avoid,neg,fungus6_crop.jpg,2,9,TRUE,85,1,757.0704,55,DON'T EAT                                    EAT,756.4897,742.3773,729.05817,right,1,left,left,not_eat,not_eat,avoid,neg,avoid-neg,1,1,580.6999999999534
sub-055,87,1,TRUE,right,approach,pos,cake2_crop.jpg,2,9,TRUE,86,2,759.4049,55,DON'T EAT                                    EAT,758.50793,742.3773,729.05817,right,2,right,right,eat,eat,avoid,neg,avoid-neg,1,1,896.9700000000885
sub-055,88,1,TRUE,right,approach,neg,insect19_crop.jpg,2,9,TRUE,87,2,761.3828,55,DON'T EAT                                    EAT,760.5263,742.3773,729.05817,right,2,right,right,eat,eat,avoid,neg,avoid-neg,1,1,856.4999999998836
sub-055,89,1,FALSE,right,avoid,neg,fungus2_crop.jpg,2,9,TRUE,88,1,763.4219,55,DON'T EAT                                    EAT,762.5446,742.3773,729.05817,right,1,left,left,not_eat,not_eat,avoid,neg,avoid-neg,1,1,877.3000000000466
sub-055,90,1,FALSE,right,avoid,neg,fungus39_crop.jpg,2,9,TRUE,89,1,765.39655,55,DON'T EAT                                    EAT,764.56274,742.3773,729.05817,right,1,left,left,not_eat,not_eat,avoid,neg,avoid-neg,1,1,833.8100000000559
sub-055,91,0,TRUE,left,avoid,pos,meat10_crop.jpg,2,10,TRUE,90,1,783.8955,55,DON'T EAT                                    EAT,782.8782,778.8581,729.05817,right,1,left,left,not_eat,not_eat,approach,neg,approach-neg,1,1,1017.3000000000466
sub-055,92,0,FALSE,left,approach,neg,insect31_crop.jpg,2,10,TRUE,91,2,785.666,55,DON'T EAT                                    EAT,784.8965,778.8581,729.05817,right,2,right,right,eat,eat,approach,neg,approach-neg,1,1,769.5
sub-055,93,0,FALSE,left,approach,neg,insect11_crop.jpg,2,10,TRUE,92,2,787.62164,55,DON'T EAT                                    EAT,786.9149,778.8581,729.05817,right,2,right,right,eat,eat,approach,neg,approach-neg,1,1,706.7399999999907
sub-055,94,0,FALSE,left,approach,neg,insect4_crop.jpg,2,10,TRUE,93,2,789.47784,55,DON'T EAT                                    EAT,788.9327,778.8581,729.05817,right,2,right,right,eat,eat,approach,neg,approach-neg,1,1,545.140000000014
sub-055,95,0,FALSE,left,approach,neg,insect13_crop.jpg,2,10,TRUE,94,2,791.4917,55,DON'T EAT                                    EAT,790.9515,778.8581,729.05817,right,2,right,right,eat,eat,approach,neg,approach-neg,1,1,540.2000000000698
sub-055,96,0,FALSE,left,approach,neg,insect5_crop.jpg,2,10,TRUE,95,2,793.382,55,DON'T EAT                                    EAT,792.97,778.8581,729.05817,right,2,right,right,eat,eat,approach,neg,approach-neg,1,1,412
sub-055,97,0,FALSE,left,approach,neg,insect30_crop.jpg,2,10,TRUE,96,2,795.47565,55,DON'T EAT                                    EAT,794.9883,778.8581,729.05817,right,2,right,right,eat,eat,approach,neg,approach-neg,1,1,487.35000000009313
sub-055,98,0,FALSE,left,approach,neg,insect16_crop.jpg,2,10,TRUE,97,2,797.5033,55,DON'T EAT                                    EAT,797.00665,778.8581,729.05817,right,2,right,right,eat,eat,approach,neg,approach-neg,1,1,496.64999999990687
sub-055,99,0,FALSE,left,approach,neg,insect17_crop.jpg,2,10,TRUE,98,2,799.44904,55,DON'T EAT                                    EAT,799.0249,778.8581,729.05817,right,2,right,right,eat,eat,approach,neg,approach-neg,1,1,424.13999999989755
sub-055,100,0,TRUE,left,avoid,neg,fungus7_crop.jpg,2,10,TRUE,99,1,801.7074,55,DON'T EAT                                    EAT,801.0433,778.8581,729.05817,right,1,left,left,not_eat,not_eat,approach,neg,approach-neg,1,1,664.0999999999767
sub-055,101,1,FALSE,right,approach,neg,insect2_crop.jpg,2,11,TRUE,100,2,821.1423,55,DON'T EAT                                    EAT,820.0424,816.02234,729.05817,right,2,right,right,eat,eat,approach,neg,approach-neg,1,1,1099.8999999999069
sub-055,102,1,TRUE,right,avoid,neg,fungus37_crop.jpg,2,11,TRUE,101,1,822.906,55,DON'T EAT                                    EAT,822.0608,816.02234,729.05817,right,1,left,left,not_eat,not_eat,approach,neg,approach-neg,1,1,845.2000000000698
sub-055,103,1,FALSE,right,approach,neg,insect22_crop.jpg,2,11,TRUE,102,2,825.03827,55,DON'T EAT                                    EAT,824.07855,816.02234,729.05817,right,2,right,right,eat,eat,approach,neg,approach-neg,1,1,959.7200000000885
sub-055,104,1,FALSE,right,approach,neg,insect12_crop.jpg,2,11,TRUE,103,2,826.73,55,DON'T EAT                                    EAT,826.0974,816.02234,729.05817,right,2,right,right,eat,eat,approach,neg,approach-neg,1,1,632.5999999999767
sub-055,105,1,FALSE,right,approach,neg,insect26_crop.jpg,2,11,TRUE,104,2,828.97125,55,DON'T EAT                                    EAT,828.1158,816.02234,729.05817,right,2,right,right,eat,eat,approach,neg,approach-neg,1,1,855.4499999999534
sub-055,106,1,TRUE,right,avoid,pos,meat1_crop.jpg,2,11,TRUE,105,1,830.8436,55,DON'T EAT                                    EAT,830.1341,816.02234,729.05817,right,1,left,left,not_eat,not_eat,approach,neg,approach-neg,1,1,709.5000000001164
sub-055,107,1,FALSE,right,approach,neg,insect28_crop.jpg,2,11,TRUE,106,2,832.98535,55,DON'T EAT                                    EAT,832.15216,816.02234,729.05817,right,2,right,right,eat,eat,approach,neg,approach-neg,1,1,833.1900000000605
sub-055,108,1,FALSE,right,approach,neg,insect33_crop.jpg,2,11,TRUE,107,2,834.9897,55,DON'T EAT                                    EAT,834.1704,816.02234,729.05817,right,2,right,right,eat,eat,approach,neg,approach-neg,1,1,819.2999999999302
sub-055,109,1,FALSE,right,approach,neg,insect3_crop.jpg,2,11,TRUE,108,2,836.81433,55,DON'T EAT                                    EAT,836.1891,816.02234,729.05817,right,2,right,right,eat,eat,approach,neg,approach-neg,1,1,625.2299999999814
sub-055,110,1,FALSE,right,approach,neg,insect15_crop.jpg,2,11,TRUE,109,2,838.6951,55,DON'T EAT                                    EAT,838.2076,816.02234,729.05817,right,2,right,right,eat,eat,approach,neg,approach-neg,1,1,487.5
sub-055,111,2,FALSE,left,approach,pos,cake17_crop.jpg,2,12,TRUE,110,2,857.6084,55,DON'T EAT                                    EAT,856.68964,852.6695,729.05817,right,2,right,right,eat,eat,approach,pos,approach-pos,1,1,918.7599999998929
sub-055,112,2,FALSE,left,approach,pos,cake22_crop.jpg,2,12,TRUE,111,2,859.3518,55,DON'T EAT                                    EAT,858.7078,852.6695,729.05817,right,2,right,right,eat,eat,approach,pos,approach-pos,1,1,644
sub-055,113,2,FALSE,left,approach,pos,cake31_crop.jpg,2,12,TRUE,112,2,861.2641,55,DON'T EAT                                    EAT,860.7262,852.6695,729.05817,right,2,right,right,eat,eat,approach,pos,approach-pos,1,1,537.9000000000233
sub-055,114,2,FALSE,left,approach,pos,cake34_crop.jpg,2,12,TRUE,113,2,863.369,55,DON'T EAT                                    EAT,862.74445,852.6695,729.05817,right,2,right,right,eat,eat,approach,pos,approach-pos,1,1,624.5499999999302
sub-055,115,2,FALSE,left,approach,pos,cake7_crop.jpg,2,12,TRUE,114,2,865.8076,55,DON'T EAT                                    EAT,864.7627,852.6695,729.05817,right,2,right,right,eat,eat,approach,pos,approach-pos,1,1,1044.9000000000233
sub-055,116,2,TRUE,left,avoid,pos,meat5_crop.jpg,2,12,TRUE,115,1,867.5949,55,DON'T EAT                                    EAT,866.781,852.6695,729.05817,right,1,left,left,not_eat,not_eat,approach,pos,approach-pos,1,1,813.9000000000233
sub-055,117,2,FALSE,left,approach,pos,cake15_crop.jpg,2,12,TRUE,116,2,869.64545,55,DON'T EAT                                    EAT,868.79956,852.6695,729.05817,right,2,right,right,eat,eat,approach,pos,approach-pos,1,1,845.8899999998976
sub-055,118,2,TRUE,left,avoid,neg,fungus23_crop.jpg,2,12,TRUE,117,1,871.6113,55,DON'T EAT                                    EAT,870.81793,852.6695,729.05817,right,1,left,left,not_eat,not_eat,approach,pos,approach-pos,1,1,793.3699999999953
sub-055,119,2,FALSE,left,approach,pos,cake1_crop.jpg,2,12,TRUE,118,2,873.7154,55,DON'T EAT                                    EAT,872.8362,852.6695,729.05817,right,2,right,right,eat,eat,approach,pos,approach-pos,1,1,879.2000000000698
sub-055,120,2,FALSE,left,approach,pos,cake23_crop.jpg,2,12,TRUE,119,2,875.53394,55,DON'T EAT                                    EAT,874.8546,852.6695,729.05817,right,2,right,right,eat,eat,approach,pos,approach-pos,1,1,679.3400000000838
sub-055,121,3,FALSE,left,avoid,pos,meat2_crop.jpg,2,13,TRUE,120,1,893.129,55,DON'T EAT                                    EAT,892.2189,888.1989,729.05817,right,1,left,left,not_eat,not_eat,avoid,pos,avoid-pos,1,1,910.1000000000931
sub-055,122,3,TRUE,left,approach,neg,insect34_crop.jpg,2,13,TRUE,121,2,895.17224,55,DON'T EAT                                    EAT,894.23676,888.1989,729.05817,right,2,right,right,eat,eat,avoid,pos,avoid-pos,1,1,935.4799999999814
sub-055,123,3,FALSE,left,avoid,pos,meat25_crop.jpg,2,13,TRUE,122,1,896.9743,55,DON'T EAT                                    EAT,896.2554,888.1989,729.05817,right,1,left,left,not_eat,not_eat,avoid,pos,avoid-pos,1,1,718.8999999999069
sub-055,124,3,FALSE,left,avoid,pos,meat18_crop.jpg,2,13,TRUE,123,1,898.88544,55,DON'T EAT                                    EAT,898.27374,888.1989,729.05817,right,1,left,left,not_eat,not_eat,avoid,pos,avoid-pos,1,1,611.7000000000698
sub-055,125,3,FALSE,left,avoid,pos,meat4_crop.jpg,2,13,TRUE,124,1,900.8737,55,DON'T EAT                                    EAT,900.29236,888.1989,729.05817,right,1,left,left,not_eat,not_eat,avoid,pos,avoid-pos,1,1,581.3399999999674
sub-055,126,3,FALSE,left,avoid,pos,meat11_crop.jpg,2,13,TRUE,125,1,902.9451,55,DON'T EAT                                    EAT,902.3107,888.1989,729.05817,right,1,left,left,not_eat,not_eat,avoid,pos,avoid-pos,1,1,634.4000000000233
sub-055,127,3,FALSE,left,avoid,pos,meat16_crop.jpg,2,13,TRUE,126,1,905.1792,55,DON'T EAT                                    EAT,904.3286,888.1989,729.05817,right,1,left,left,not_eat,not_eat,avoid,pos,avoid-pos,1,1,850.5999999999767
sub-055,128,3,FALSE,left,avoid,pos,meat17_crop.jpg,2,13,TRUE,127,1,906.8545,55,DON'T EAT                                    EAT,906.34735,888.1989,729.05817,right,1,left,left,not_eat,not_eat,avoid,pos,avoid-pos,1,1,507.1500000000233
sub-055,129,3,TRUE,left,approach,pos,cake8_crop.jpg,2,13,TRUE,128,1,908.8831,55,DON'T EAT                                    EAT,908.3657,888.1989,729.05817,right,1,left,left,not_eat,not_eat,avoid,pos,avoid-pos,0,0,517.4000000000233
sub-055,130,3,FALSE,left,avoid,pos,meat15_crop.jpg,2,13,TRUE,129,1,911.1562,55,DON'T EAT                                    EAT,910.3837,888.1989,729.05817,right,1,left,left,not_eat,not_eat,avoid,pos,avoid-pos,1,1,772.5000000001164
sub-055,131,1,FALSE,left,approach,pos,cake12_crop.jpg,2,14,TRUE,130,2,928.3388,55,DON'T EAT                                    EAT,927.31476,923.29456,729.05817,right,2,right,right,eat,eat,approach,pos,approach-pos,1,1,1024.0400000000373
sub-055,132,1,FALSE,left,approach,pos,cake36_crop.jpg,2,14,TRUE,131,2,929.9672,55,DON'T EAT                                    EAT,929.3332,923.29456,729.05817,right,2,right,right,eat,eat,approach,pos,approach-pos,1,1,634
sub-055,133,1,FALSE,left,approach,pos,cake6_crop.jpg,2,14,TRUE,132,2,931.85846,55,DON'T EAT                                    EAT,931.3514,923.29456,729.05817,right,2,right,right,eat,eat,approach,pos,approach-pos,1,1,507.0600000000559
sub-055,134,1,FALSE,left,approach,pos,cake40_crop.jpg,2,14,TRUE,133,2,934.0696,55,DON'T EAT                                    EAT,933.3698,923.29456,729.05817,right,2,right,right,eat,eat,approach,pos,approach-pos,1,1,699.8000000000466
sub-055,135,1,FALSE,left,approach,pos,cake37_crop.jpg,2,14,TRUE,134,2,936.07697,55,DON'T EAT                                    EAT,935.38824,923.29456,729.05817,right,2,right,right,eat,eat,approach,pos,approach-pos,1,1,688.7299999999814
sub-055,136,1,FALSE,left,approach,pos,cake26_crop.jpg,2,14,TRUE,135,2,938.0841,55,DON'T EAT                                    EAT,937.4062,923.29456,729.05817,right,2,right,right,eat,eat,approach,pos,approach-pos,1,1,677.9000000000233
sub-055,137,1,TRUE,left,avoid,pos,meat12_crop.jpg,2,14,TRUE,136,1,940.19415,55,DON'T EAT                                    EAT,939.42487,923.29456,729.05817,right,1,left,left,not_eat,not_eat,approach,pos,approach-pos,1,1,769.2799999999115
sub-055,138,1,TRUE,left,avoid,neg,fungus14_crop.jpg,2,14,TRUE,137,1,942.2364,55,DON'T EAT                                    EAT,941.44336,923.29456,729.05817,right,1,left,left,not_eat,not_eat,approach,pos,approach-pos,1,1,793.0400000000373
sub-055,139,1,FALSE,left,approach,pos,cake27_crop.jpg,2,14,TRUE,138,2,944.0236,55,DON'T EAT                                    EAT,943.46136,923.29456,729.05817,right,2,right,right,eat,eat,approach,pos,approach-pos,1,1,562.2399999999907
sub-055,140,1,FALSE,left,approach,pos,cake28_crop.jpg,2,14,TRUE,139,2,946.1041,55,DON'T EAT                                    EAT,945.48,923.29456,729.05817,right,2,right,right,eat,eat,approach,pos,approach-pos,1,1,624.0999999999767
sub-055,141,3,FALSE,right,approach,neg,insect36_crop.jpg,2,15,TRUE,140,2,965.68176,55,DON'T EAT                                    EAT,964.5786,960.5591,729.05817,right,2,right,right,eat,eat,approach,neg,approach-neg,1,1,1103.1599999999162
sub-055,142,3,FALSE,right,approach,neg,insect24_crop.jpg,2,15,TRUE,141,2,967.2443,55,DON'T EAT                                    EAT,966.5974,960.5591,729.05817,right,2,right,right,eat,eat,approach,neg,approach-neg,1,1,646.8999999999069
sub-055,143,3,FALSE,right,approach,neg,insect30_crop.jpg,2,15,TRUE,142,2,969.4178,55,DON'T EAT                                    EAT,968.61554,960.5591,729.05817,right,2,right,right,eat,eat,approach,neg,approach-neg,1,1,802.2600000000093
sub-055,144,3,FALSE,right,approach,neg,insect32_crop.jpg,2,15,TRUE,143,2,971.20184,55,DON'T EAT                                    EAT,970.63354,960.5591,729.05817,right,2,right,right,eat,eat,approach,neg,approach-neg,1,1,568.2999999999302
sub-055,145,3,FALSE,right,approach,neg,insect40_crop.jpg,2,15,TRUE,144,2,973.3945,55,DON'T EAT                                    EAT,972.65216,960.5591,729.05817,right,2,right,right,eat,eat,approach,neg,approach-neg,1,1,742.3399999999674
sub-055,146,3,FALSE,right,approach,neg,insect4_crop.jpg,2,15,TRUE,145,2,975.37897,55,DON'T EAT                                    EAT,974.6708,960.5591,729.05817,right,2,right,right,eat,eat,approach,neg,approach-neg,1,1,708.1700000000419
sub-055,147,3,TRUE,right,avoid,pos,meat16_crop.jpg,2,15,TRUE,146,1,977.4082,55,DON'T EAT                                    EAT,976.6891,960.5591,729.05817,right,1,left,left,not_eat,not_eat,approach,neg,approach-neg,1,1,719.0999999998603
sub-055,148,3,FALSE,right,approach,neg,insect31_crop.jpg,2,15,TRUE,147,2,979.3212,55,DON'T EAT                                    EAT,978.70746,960.5591,729.05817,right,2,right,right,eat,eat,approach,neg,approach-neg,1,1,613.7399999999907
sub-055,149,3,FALSE,right,approach,neg,insect34_crop.jpg,2,15,TRUE,148,2,981.3922,55,DON'T EAT                                    EAT,980.7258,960.5591,729.05817,right,2,right,right,eat,eat,approach,neg,approach-neg,1,1,666.3999999999069
sub-055,150,3,TRUE,right,avoid,neg,fungus1_crop.jpg,2,15,TRUE,149,1,983.5254,55,DON'T EAT                                    EAT,982.74414,960.5591,729.05817,right,1,left,left,not_eat,not_eat,approach,neg,approach-neg,1,1,781.2600000000093
sub-055,151,0,TRUE,right,avoid,neg,fungus15_crop.jpg,2,16,TRUE,150,1,999.7832,55,DON'T EAT                                    EAT,998.9743,994.954,729.05817,right,1,left,left,not_eat,not_eat,approach,pos,approach-pos,1,1,808.9000000000233
sub-055,152,0,FALSE,right,approach,pos,cake5_crop.jpg,2,16,TRUE,151,2,1001.92267,55,DON'T EAT                                    EAT,1000.9926,994.954,729.05817,right,2,right,right,eat,eat,approach,pos,approach-pos,1,1,930.0699999999488
sub-055,153,0,FALSE,right,approach,pos,cake4_crop.jpg,2,16,TRUE,152,2,1004.10364,55,DON'T EAT                                    EAT,1003.01105,994.954,729.05817,right,2,right,right,eat,eat,approach,pos,approach-pos,1,1,1092.5900000000838
sub-055,154,0,TRUE,right,avoid,pos,meat6_crop.jpg,2,16,TRUE,153,1,1005.8684,55,DON'T EAT                                    EAT,1005.0294,994.954,729.05817,right,1,left,left,not_eat,not_eat,approach,pos,approach-pos,1,1,838.9999999998836
sub-055,155,0,FALSE,right,approach,pos,cake35_crop.jpg,2,16,TRUE,154,2,1007.9859,55,DON'T EAT                                    EAT,1007.0477,994.954,729.05817,right,2,right,right,eat,eat,approach,pos,approach-pos,1,1,938.2000000000698
sub-055,156,0,FALSE,right,approach,pos,cake24_crop.jpg,2,16,TRUE,155,2,1009.7726,55,DON'T EAT                                    EAT,1009.06604,994.954,729.05817,right,2,right,right,eat,eat,approach,pos,approach-pos,1,1,706.5599999999395
sub-055,157,0,FALSE,right,approach,pos,cake19_crop.jpg,2,16,TRUE,156,2,1011.98364,55,DON'T EAT                                    EAT,1011.0844,994.954,729.05817,right,2,right,right,eat,eat,approach,pos,approach-pos,1,1,899.2400000001071
sub-055,158,0,FALSE,right,approach,pos,cake22_crop.jpg,2,16,TRUE,157,2,1013.86127,55,DON'T EAT                                    EAT,1013.1026,994.954,729.05817,right,2,right,right,eat,eat,approach,pos,approach-pos,1,1,758.6699999999255
sub-055,159,0,FALSE,right,approach,pos,cake15_crop.jpg,2,16,TRUE,158,2,1015.8049,55,DON'T EAT                                    EAT,1015.1208,994.954,729.05817,right,2,right,right,eat,eat,approach,pos,approach-pos,1,1,684.0999999999767
sub-055,160,0,FALSE,right,approach,pos,cake38_crop.jpg,2,16,TRUE,159,2,1017.93164,55,DON'T EAT                                    EAT,1017.1395,994.954,729.05817,right,2,right,right,eat,eat,approach,pos,approach-pos,1,1,792.140000000014
sub-055,161,1,FALSE,left,avoid,pos,meat24_crop.jpg,3,17,TRUE,160,1,1116.5205,55,DON'T EAT                                    EAT,1115.4877,1111.4678,1100.5781,left,1,left,left,not_eat,not_eat,avoid,pos,avoid-pos,1,1,1032.8000000000466
sub-055,162,1,FALSE,left,avoid,pos,meat38_crop.jpg,3,17,TRUE,161,1,1118.0332,55,DON'T EAT                                    EAT,1117.5061,1111.4678,1100.5781,left,1,left,left,not_eat,not_eat,avoid,pos,avoid-pos,1,1,527.1000000000931
sub-055,163,1,FALSE,left,avoid,pos,meat27_crop.jpg,3,17,TRUE,162,1,1119.9987,55,DON'T EAT                                    EAT,1119.5244,1111.4678,1100.5781,left,1,left,left,not_eat,not_eat,avoid,pos,avoid-pos,1,1,474.3000000002794
sub-055,164,1,FALSE,left,avoid,pos,meat13_crop.jpg,3,17,TRUE,163,1,1122.0498,55,DON'T EAT                                    EAT,1121.5426,1111.4678,1100.5781,left,1,left,left,not_eat,not_eat,avoid,pos,avoid-pos,1,1,507.19999999995343
sub-055,165,1,TRUE,left,approach,neg,insect39_crop.jpg,3,17,TRUE,164,2,1124.364,55,DON'T EAT                                    EAT,1123.5612,1111.4678,1100.5781,left,2,right,right,eat,eat,avoid,pos,avoid-pos,1,1,802.7999999998137
sub-055,166,1,TRUE,left,approach,pos,cake24_crop.jpg,3,17,TRUE,165,2,1126.4166,55,DON'T EAT                                    EAT,1125.5796,1111.4678,1100.5781,left,2,right,right,eat,eat,avoid,pos,avoid-pos,1,1,837
sub-055,167,1,FALSE,left,avoid,pos,meat31_crop.jpg,3,17,TRUE,166,1,1128.2977,55,DON'T EAT                                    EAT,1127.5978,1111.4678,1100.5781,left,1,left,left,not_eat,not_eat,avoid,pos,avoid-pos,1,1,699.9000000001397
sub-055,168,1,FALSE,left,avoid,pos,meat19_crop.jpg,3,17,TRUE,167,1,1130.2733,55,DON'T EAT                                    EAT,1129.6161,1111.4678,1100.5781,left,1,left,left,not_eat,not_eat,avoid,pos,avoid-pos,1,1,657.2000000001863
sub-055,169,1,FALSE,left,avoid,pos,meat34_crop.jpg,3,17,TRUE,168,1,1132.429,55,DON'T EAT                                    EAT,1131.6345,1111.4678,1100.5781,left,1,left,left,not_eat,not_eat,avoid,pos,avoid-pos,1,1,794.5
sub-055,170,1,FALSE,left,avoid,pos,meat8_crop.jpg,3,17,TRUE,169,1,1134.2712,55,DON'T EAT                                    EAT,1133.6526,1111.4678,1100.5781,left,1,left,left,not_eat,not_eat,avoid,pos,avoid-pos,1,1,618.6000000000931
sub-055,171,0,TRUE,right,approach,pos,cake7_crop.jpg,3,18,TRUE,170,2,1153.0322,55,DON'T EAT                                    EAT,1152.1509,1148.1313,1100.5781,left,2,right,right,eat,eat,avoid,pos,avoid-pos,1,1,881.3000000000466
sub-055,172,0,FALSE,right,avoid,pos,meat22_crop.jpg,3,18,TRUE,171,1,1155.3538,55,DON'T EAT                                    EAT,1154.1693,1148.1313,1100.5781,left,1,left,left,not_eat,not_eat,avoid,pos,avoid-pos,1,1,1184.5
sub-055,173,0,FALSE,right,avoid,pos,meat30_crop.jpg,3,18,TRUE,172,1,1156.9795,55,DON'T EAT                                    EAT,1156.1882,1148.1313,1100.5781,left,1,left,left,not_eat,not_eat,avoid,pos,avoid-pos,1,1,791.3000000000466
sub-055,174,0,FALSE,right,avoid,pos,meat40_crop.jpg,3,18,TRUE,173,1,1158.9866,55,DON'T EAT                                    EAT,1158.2067,1148.1313,1100.5781,left,1,left,left,not_eat,not_eat,avoid,pos,avoid-pos,1,1,779.8999999999069
sub-055,175,0,FALSE,right,avoid,pos,meat27_crop.jpg,3,18,TRUE,174,1,1160.9126,55,DON'T EAT                                    EAT,1160.2249,1148.1313,1100.5781,left,1,left,left,not_eat,not_eat,avoid,pos,avoid-pos,1,1,687.7000000001863
sub-055,176,0,FALSE,right,avoid,pos,meat14_crop.jpg,3,18,TRUE,175,1,1162.8223,55,DON'T EAT                                    EAT,1162.2433,1148.1313,1100.5781,left,1,left,left,not_eat,not_eat,avoid,pos,avoid-pos,1,1,579
sub-055,177,0,FALSE,right,avoid,pos,meat29_crop.jpg,3,18,TRUE,176,1,1164.8235,55,DON'T EAT                                    EAT,1164.2611,1148.1313,1100.5781,left,1,left,left,not_eat,not_eat,avoid,pos,avoid-pos,1,1,562.4000000001397
sub-055,178,0,FALSE,right,avoid,pos,meat25_crop.jpg,3,18,TRUE,177,1,1167.0833,55,DON'T EAT                                    EAT,1166.2799,1148.1313,1100.5781,left,1,left,left,not_eat,not_eat,avoid,pos,avoid-pos,1,1,803.4000000001397
sub-055,179,0,TRUE,right,approach,neg,insect11_crop.jpg,3,18,TRUE,178,2,1169.169,55,DON'T EAT                                    EAT,1168.2982,1148.1313,1100.5781,left,2,right,right,eat,eat,avoid,pos,avoid-pos,1,1,870.8000000000466
sub-055,180,0,FALSE,right,avoid,pos,meat10_crop.jpg,3,18,TRUE,179,1,1171.2565,55,DON'T EAT                                    EAT,1170.3165,1148.1313,1100.5781,left,1,left,left,not_eat,not_eat,avoid,pos,avoid-pos,1,1,940
sub-055,181,1,FALSE,right,approach,pos,cake30_crop.jpg,3,19,TRUE,180,2,1190.987,55,DON'T EAT                                    EAT,1189.5825,1185.5625,1100.5781,left,2,right,right,eat,eat,approach,pos,approach-pos,1,1,1404.5
sub-055,182,1,TRUE,right,avoid,pos,meat24_crop.jpg,3,19,TRUE,181,1,1192.309,55,DON'T EAT                                    EAT,1191.601,1185.5625,1100.5781,left,1,left,left,not_eat,not_eat,approach,pos,approach-pos,1,1,708
sub-055,183,1,FALSE,right,approach,pos,cake28_crop.jpg,3,19,TRUE,182,2,1194.434,55,DON'T EAT                                    EAT,1193.6194,1185.5625,1100.5781,left,2,right,right,eat,eat,approach,pos,approach-pos,1,1,814.5999999998603
sub-055,184,1,FALSE,right,approach,pos,cake33_crop.jpg,3,19,TRUE,183,2,1196.4707,55,DON'T EAT                                    EAT,1195.6376,1185.5625,1100.5781,left,2,right,right,eat,eat,approach,pos,approach-pos,1,1,833.1000000000931
sub-055,185,1,FALSE,right,approach,pos,cake16_crop.jpg,3,19,TRUE,184,2,1198.3204,55,DON'T EAT                                    EAT,1197.6561,1185.5625,1100.5781,left,2,right,right,eat,eat,approach,pos,approach-pos,1,1,664.3000000002794
sub-055,186,1,TRUE,right,avoid,neg,fungus26_crop.jpg,3,19,TRUE,185,1,1200.4872,55,DON'T EAT                                    EAT,1199.6742,1185.5625,1100.5781,left,1,left,left,not_eat,not_eat,approach,pos,approach-pos,1,1,813
sub-055,187,1,FALSE,right,approach,pos,cake18_crop.jpg,3,19,TRUE,186,2,1202.5183,55,DON'T EAT                                    EAT,1201.6926,1185.5625,1100.5781,left,2,right,right,eat,eat,approach,pos,approach-pos,1,1,825.6999999999534
sub-055,188,1,FALSE,right,approach,pos,cake27_crop.jpg,3,19,TRUE,187,2,1204.4026,55,DON'T EAT                                    EAT,1203.711,1185.5625,1100.5781,left,2,right,right,eat,eat,approach,pos,approach-pos,1,1,691.5999999998603
sub-055,189,1,FALSE,right,approach,pos,cake31_crop.jpg,3,19,TRUE,188,2,1206.3213,55,DON'T EAT                                    EAT,1205.7294,1185.5625,1100.5781,left,2,right,right,eat,eat,approach,pos,approach-pos,1,1,591.9000000001397
sub-055,190,1,FALSE,right,approach,pos,cake36_crop.jpg,3,19,TRUE,189,2,1208.277,55,DON'T EAT                                    EAT,1207.7477,1185.5625,1100.5781,left,2,right,right,eat,eat,approach,pos,approach-pos,1,1,529.3000000000466
sub-055,191,1,FALSE,left,approach,neg,insect8_crop.jpg,3,20,TRUE,190,2,1228.1344,55,DON'T EAT                                    EAT,1227.3306,1223.3105,1100.5781,left,2,right,right,eat,eat,approach,neg,approach-neg,1,1,803.7999999998137
sub-055,192,1,FALSE,left,approach,neg,insect19_crop.jpg,3,20,TRUE,191,2,1229.9445,55,DON'T EAT                                    EAT,1229.349,1223.3105,1100.5781,left,2,right,right,eat,eat,approach,neg,approach-neg,1,1,595.5
sub-055,193,1,TRUE,left,avoid,neg,fungus32_crop.jpg,3,20,TRUE,192,1,1232.6257,55,DON'T EAT                                    EAT,1231.3673,1223.3105,1100.5781,left,1,left,left,not_eat,not_eat,approach,neg,approach-neg,1,1,1258.4000000001397
sub-055,194,1,FALSE,left,approach,neg,insect23_crop.jpg,3,20,TRUE,193,2,1234.0739,55,DON'T EAT                                    EAT,1233.3855,1223.3105,1100.5781,left,2,right,right,eat,eat,approach,neg,approach-neg,1,1,688.4000000001397
sub-055,195,1,FALSE,left,approach,neg,insect22_crop.jpg,3,20,TRUE,194,2,1235.9331,55,DON'T EAT                                    EAT,1235.4034,1223.3105,1100.5781,left,2,right,right,eat,eat,approach,neg,approach-neg,1,1,529.6999999999534
sub-055,196,1,FALSE,left,approach,neg,insect33_crop.jpg,3,20,TRUE,195,2,1238.0253,55,DON'T EAT                                    EAT,1237.4222,1223.3105,1100.5781,left,2,right,right,eat,eat,approach,neg,approach-neg,1,1,603.1000000000931
sub-055,197,1,FALSE,left,approach,neg,insect14_crop.jpg,3,20,TRUE,196,2,1239.9774,55,DON'T EAT                                    EAT,1239.4408,1223.3105,1100.5781,left,2,right,right,eat,eat,approach,neg,approach-neg,1,1,536.5999999998603
sub-055,198,1,FALSE,left,approach,neg,insect29_crop.jpg,3,20,TRUE,197,2,1242.1786,55,DON'T EAT                                    EAT,1241.4591,1223.3105,1100.5781,left,2,right,right,eat,eat,approach,neg,approach-neg,1,1,719.4999999997672
sub-055,199,1,TRUE,left,avoid,pos,meat40_crop.jpg,3,20,TRUE,198,1,1244.2291,55,DON'T EAT                                    EAT,1243.4769,1223.3105,1100.5781,left,1,left,left,not_eat,not_eat,approach,neg,approach-neg,1,1,752.2000000001863
sub-055,200,1,FALSE,left,approach,neg,insect10_crop.jpg,3,20,TRUE,199,2,1246.2684,55,DON'T EAT                                    EAT,1245.4957,1223.3105,1100.5781,left,2,right,right,eat,eat,approach,neg,approach-neg,1,1,772.6999999999534
sub-055,201,2,FALSE,right,approach,pos,cake34_crop.jpg,3,21,TRUE,200,2,1265.1257,55,DON'T EAT                                    EAT,1263.4272,1259.4073,1100.5781,left,2,right,right,eat,eat,approach,pos,approach-pos,1,1,1698.4999999997672
sub-055,202,2,FALSE,right,approach,pos,cake6_crop.jpg,3,21,TRUE,201,2,1266.4692,55,DON'T EAT                                    EAT,1265.4456,1259.4073,1100.5781,left,2,right,right,eat,eat,approach,pos,approach-pos,1,1,1023.5999999998603
sub-055,203,2,FALSE,right,approach,pos,cake8_crop.jpg,3,21,TRUE,202,2,1268.2153,55,DON'T EAT                                    EAT,1267.464,1259.4073,1100.5781,left,2,right,right,eat,eat,approach,pos,approach-pos,1,1,751.3000000000466
sub-055,204,2,FALSE,right,approach,pos,cake21_crop.jpg,3,21,TRUE,203,2,1270.2856,55,DON'T EAT                                    EAT,1269.4823,1259.4073,1100.5781,left,2,right,right,eat,eat,approach,pos,approach-pos,1,1,803.3000000000466
sub-055,205,2,FALSE,right,approach,pos,cake1_crop.jpg,3,21,TRUE,204,2,1272.1351,55,DON'T EAT                                    EAT,1271.5006,1259.4073,1100.5781,left,2,right,right,eat,eat,approach,pos,approach-pos,1,1,634.4999999997672
sub-055,206,2,FALSE,right,approach,pos,cake39_crop.jpg,3,21,TRUE,205,2,1274.1515,55,DON'T EAT                                    EAT,1273.5186,1259.4073,1100.5781,left,2,right,right,eat,eat,approach,pos,approach-pos,1,1,632.8999999999069
sub-055,207,2,TRUE,right,avoid,neg,fungus16_crop.jpg,3,21,TRUE,206,1,1276.436,55,DON'T EAT                                    EAT,1275.5372,1259.4073,1100.5781,left,1,left,left,not_eat,not_eat,approach,pos,approach-pos,1,1,898.8000000000466
sub-055,208,2,FALSE,right,approach,pos,cake10_crop.jpg,3,21,TRUE,207,2,1278.3895,55,DON'T EAT                                    EAT,1277.5557,1259.4073,1100.5781,left,2,right,right,eat,eat,approach,pos,approach-pos,1,1,833.8000000000466
sub-055,209,2,FALSE,right,approach,pos,cake14_crop.jpg,3,21,TRUE,208,2,1280.2389,55,DON'T EAT                                    EAT,1279.574,1259.4073,1100.5781,left,2,right,right,eat,eat,approach,pos,approach-pos,1,1,664.9000000001397
sub-055,210,2,TRUE,right,avoid,pos,meat12_crop.jpg,3,21,TRUE,209,1,1282.4049,55,DON'T EAT                                    EAT,1281.5924,1259.4073,1100.5781,left,1,left,left,not_eat,not_eat,approach,pos,approach-pos,1,1,812.5
sub-055,211,0,TRUE,left,approach,neg,insect26_crop.jpg,3,22,TRUE,210,2,1298.4933,55,DON'T EAT                                    EAT,1297.689,1293.6688,1100.5781,left,2,right,right,eat,eat,avoid,pos,avoid-pos,1,1,804.3000000000466
sub-055,212,0,FALSE,left,avoid,pos,meat21_crop.jpg,3,22,TRUE,211,1,1300.3497,55,DON'T EAT                                    EAT,1299.7074,1293.6688,1100.5781,left,1,left,left,not_eat,not_eat,avoid,pos,avoid-pos,1,1,642.3000000000466
sub-055,213,0,FALSE,left,avoid,pos,meat7_crop.jpg,3,22,TRUE,212,1,1302.4045,55,DON'T EAT                                    EAT,1301.7257,1293.6688,1100.5781,left,1,left,left,not_eat,not_eat,avoid,pos,avoid-pos,1,1,678.8000000000466
sub-055,214,0,FALSE,left,avoid,pos,meat36_crop.jpg,3,22,TRUE,213,1,1304.3586,55,DON'T EAT                                    EAT,1303.744,1293.6688,1100.5781,left,1,left,left,not_eat,not_eat,avoid,pos,avoid-pos,1,1,614.6000000000931
sub-055,215,0,FALSE,left,avoid,pos,meat1_crop.jpg,3,22,TRUE,214,1,1306.6074,55,DON'T EAT                                    EAT,1305.7626,1293.6688,1100.5781,left,1,left,left,not_eat,not_eat,avoid,pos,avoid-pos,1,1,844.8000000000466
sub-055,216,0,FALSE,left,avoid,pos,meat6_crop.jpg,3,22,TRUE,215,1,1308.3423,55,DON'T EAT                                    EAT,1307.7806,1293.6688,1100.5781,left,1,left,left,not_eat,not_eat,avoid,pos,avoid-pos,1,1,561.6999999999534
sub-055,217,0,FALSE,left,avoid,pos,meat39_crop.jpg,3,22,TRUE,216,1,1310.4462,55,DON'T EAT                                    EAT,1309.7992,1293.6688,1100.5781,left,1,left,left,not_eat,not_eat,avoid,pos,avoid-pos,1,1,647.0000000002328
sub-055,218,0,FALSE,left,avoid,pos,meat23_crop.jpg,3,22,TRUE,217,1,1312.378,55,DON'T EAT                                    EAT,1311.8174,1293.6688,1100.5781,left,1,left,left,not_eat,not_eat,avoid,pos,avoid-pos,1,1,560.6000000000931
sub-055,219,0,TRUE,left,approach,pos,cake33_crop.jpg,3,22,TRUE,218,2,1314.8577,55,DON'T EAT                                    EAT,1313.8354,1293.6688,1100.5781,left,2,right,right,eat,eat,avoid,pos,avoid-pos,1,1,1022.3000000000466
sub-055,220,0,FALSE,left,avoid,pos,meat37_crop.jpg,3,22,TRUE,219,1,1316.785,55,DON'T EAT                                    EAT,1315.8539,1293.6688,1100.5781,left,1,left,left,not_eat,not_eat,avoid,pos,avoid-pos,1,1,931.0999999998603
sub-055,221,3,FALSE,left,avoid,neg,fungus31_crop.jpg,3,23,TRUE,220,1,1333.2032,55,DON'T EAT                                    EAT,1332.4513,1328.431,1100.5781,left,1,left,left,not_eat,not_eat,avoid,neg,avoid-neg,1,1,751.8999999999069
sub-055,222,3,FALSE,left,avoid,neg,fungus34_crop.jpg,3,23,TRUE,221,1,1335.1523,55,DON'T EAT                                    EAT,1334.469,1328.431,1100.5781,left,1,left,left,not_eat,not_eat,avoid,neg,avoid-neg,1,1,683.3000000000466
sub-055,223,3,FALSE,left,avoid,neg,fungus29_crop.jpg,3,23,TRUE,222,1,1337.251,55,DON'T EAT                                    EAT,1336.4879,1328.431,1100.5781,left,1,left,left,not_eat,not_eat,avoid,neg,avoid-neg,1,1,763.0999999998603
sub-055,224,3,TRUE,left,approach,pos,cake35_crop.jpg,3,23,TRUE,223,2,1339.4464,55,DON'T EAT                                    EAT,1338.5062,1328.431,1100.5781,left,2,right,right,eat,eat,avoid,neg,avoid-neg,1,1,940.2000000001863
sub-055,225,3,FALSE,left,avoid,neg,fungus10_crop.jpg,3,23,TRUE,224,1,1341.2664,55,DON'T EAT                                    EAT,1340.5245,1328.431,1100.5781,left,1,left,left,not_eat,not_eat,avoid,neg,avoid-neg,1,1,741.8999999999069
sub-055,226,3,FALSE,left,avoid,neg,fungus39_crop.jpg,3,23,TRUE,225,1,1343.2931,55,DON'T EAT                                    EAT,1342.5427,1328.431,1100.5781,left,1,left,left,not_eat,not_eat,avoid,neg,avoid-neg,1,1,750.4000000001397
sub-055,227,3,FALSE,left,avoid,neg,fungus13_crop.jpg,3,23,TRUE,226,1,1345.2772,55,DON'T EAT                                    EAT,1344.5608,1328.431,1100.5781,left,1,left,left,not_eat,not_eat,avoid,neg,avoid-neg,1,1,716.3999999999069
sub-055,228,3,FALSE,left,avoid,neg,fungus12_crop.jpg,3,23,TRUE,227,1,1347.3386,55,DON'T EAT                                    EAT,1346.5797,1328.431,1100.5781,left,1,left,left,not_eat,not_eat,avoid,neg,avoid-neg,1,1,758.9000000001397
sub-055,229,3,FALSE,left,avoid,neg,fungus4_crop.jpg,3,23,TRUE,228,1,1349.2247,55,DON'T EAT                                    EAT,1348.598,1328.431,1100.5781,left,1,left,left,not_eat,not_eat,avoid,neg,avoid-neg,1,1,626.6999999999534
sub-055,230,3,TRUE,left,approach,neg,insect12_crop.jpg,3,23,TRUE,229,2,1351.3878,55,DON'T EAT                                    EAT,1350.6163,1328.431,1100.5781,left,2,right,right,eat,eat,avoid,neg,avoid-neg,1,1,771.5000000002328
sub-055,231,2,FALSE,right,avoid,pos,meat11_crop.jpg,3,24,TRUE,230,1,1370.8622,55,DON'T EAT                                    EAT,1370.1493,1366.1293,1100.5781,left,1,left,left,not_eat,not_eat,avoid,pos,avoid-pos,1,1,712.8999999999069
sub-055,232,2,FALSE,right,avoid,pos,meat18_crop.jpg,3,24,TRUE,231,1,1372.7167,55,DON'T EAT                                    EAT,1372.1677,1366.1293,1100.5781,left,1,left,left,not_eat,not_eat,avoid,pos,avoid-pos,1,1,549
sub-055,233,2,FALSE,right,avoid,pos,meat32_crop.jpg,3,24,TRUE,232,1,1374.8252,55,DON'T EAT                                    EAT,1374.1857,1366.1293,1100.5781,left,1,left,left,not_eat,not_eat,avoid,pos,avoid-pos,1,1,639.5
sub-055,234,2,FALSE,right,avoid,pos,meat33_crop.jpg,3,24,TRUE,233,1,1376.742,55,DON'T EAT                                    EAT,1376.2042,1366.1293,1100.5781,left,1,left,left,not_eat,not_eat,avoid,pos,avoid-pos,1,1,537.8000000000466
sub-055,235,2,TRUE,right,approach,neg,insect10_crop.jpg,3,24,TRUE,234,2,1378.9377,55,DON'T EAT                                    EAT,1378.2223,1366.1293,1100.5781,left,2,right,right,eat,eat,avoid,pos,avoid-pos,1,1,715.4000000001397
sub-055,236,2,TRUE,right,approach,pos,cake3_crop.jpg,3,24,TRUE,235,2,1381.0415,55,DON'T EAT                                    EAT,1380.241,1366.1293,1100.5781,left,2,right,right,eat,eat,avoid,pos,avoid-pos,1,1,800.5
sub-055,237,2,FALSE,right,avoid,pos,meat15_crop.jpg,3,24,TRUE,236,--,NA,55,DON'T EAT                                    EAT,1382.2593,1366.1293,1100.5781,left,--,NA,NA,no_response,no_response,avoid,pos,avoid-pos,NA,NA,NA
sub-055,238,2,FALSE,right,avoid,pos,meat3_crop.jpg,3,24,TRUE,237,1,1384.6583,55,DON'T EAT                                    EAT,1384.2771,1366.1293,1100.5781,left,1,left,left,not_eat,not_eat,avoid,pos,avoid-pos,1,1,381.19999999995343
sub-055,239,2,FALSE,right,avoid,pos,meat38_crop.jpg,3,24,TRUE,238,1,1387.0144,55,DON'T EAT                                    EAT,1386.2959,1366.1293,1100.5781,left,1,left,left,not_eat,not_eat,avoid,pos,avoid-pos,1,1,718.4999999997672
sub-055,240,2,FALSE,right,avoid,pos,meat13_crop.jpg,3,24,TRUE,239,1,1388.9065,55,DON'T EAT                                    EAT,1388.3142,1366.1293,1100.5781,left,1,left,left,not_eat,not_eat,avoid,pos,avoid-pos,1,1,592.3000000000466
sub-055,241,3,FALSE,left,approach,pos,cake19_crop.jpg,4,25,TRUE,240,2,1510.4153,55,DON'T EAT                                    EAT,1509.5483,1505.5281,1493.3862,right,2,right,right,eat,eat,approach,pos,approach-pos,1,1,867
sub-055,242,3,FALSE,left,approach,pos,cake32_crop.jpg,4,25,TRUE,241,2,1512.4008,55,DON'T EAT                                    EAT,1511.5667,1505.5281,1493.3862,right,2,right,right,eat,eat,approach,pos,approach-pos,1,1,834.0999999996275
sub-055,243,3,FALSE,left,approach,pos,cake5_crop.jpg,4,25,TRUE,242,2,1514.2627,55,DON'T EAT                                    EAT,1513.585,1505.5281,1493.3862,right,2,right,right,eat,eat,approach,pos,approach-pos,1,1,677.6999999999534
sub-055,244,3,FALSE,left,approach,pos,cake4_crop.jpg,4,25,TRUE,243,2,1516.2227,55,DON'T EAT                                    EAT,1515.6028,1505.5281,1493.3862,right,2,right,right,eat,eat,approach,pos,approach-pos,1,1,619.9000000001397
sub-055,245,3,FALSE,left,approach,pos,cake21_crop.jpg,4,25,TRUE,244,2,1518.2025,55,DON'T EAT                                    EAT,1517.6215,1505.5281,1493.3862,right,2,right,right,eat,eat,approach,pos,approach-pos,1,1,581
sub-055,246,3,FALSE,left,approach,pos,cake10_crop.jpg,4,25,TRUE,245,2,1520.2855,55,DON'T EAT                                    EAT,1519.6401,1505.5281,1493.3862,right,2,right,right,eat,eat,approach,pos,approach-pos,1,1,645.3999999999069
sub-055,247,3,TRUE,left,avoid,pos,meat9_crop.jpg,4,25,TRUE,246,1,1522.6654,55,DON'T EAT                                    EAT,1521.6586,1505.5281,1493.3862,right,1,left,left,not_eat,not_eat,approach,pos,approach-pos,1,1,1006.8000000000466
sub-055,248,3,FALSE,left,approach,pos,cake20_crop.jpg,4,25,TRUE,247,2,1524.4097,55,DON'T EAT                                    EAT,1523.6766,1505.5281,1493.3862,right,2,right,right,eat,eat,approach,pos,approach-pos,1,1,733.0999999998603
sub-055,249,3,FALSE,left,approach,pos,cake39_crop.jpg,4,25,TRUE,248,2,1526.266,55,DON'T EAT                                    EAT,1525.6951,1505.5281,1493.3862,right,2,right,right,eat,eat,approach,pos,approach-pos,1,1,570.9000000001397
sub-055,250,3,TRUE,left,avoid,neg,fungus28_crop.jpg,4,25,TRUE,249,1,1528.4525,55,DON'T EAT                                    EAT,1527.7133,1505.5281,1493.3862,right,1,left,left,not_eat,not_eat,approach,pos,approach-pos,1,1,739.2000000001863
sub-055,251,2,FALSE,right,avoid,neg,fungus12_crop.jpg,4,26,TRUE,250,1,1548.0947,55,DON'T EAT                                    EAT,1547.1963,1543.1763,1493.3862,right,1,left,left,not_eat,not_eat,avoid,neg,avoid-neg,1,1,898.4000000001397
sub-055,252,2,FALSE,right,avoid,neg,fungus10_crop.jpg,4,26,TRUE,251,1,1549.8684,55,DON'T EAT                                    EAT,1549.2146,1543.1763,1493.3862,right,1,left,left,not_eat,not_eat,avoid,neg,avoid-neg,1,1,653.8000000000466
sub-055,253,2,FALSE,right,avoid,neg,fungus5_crop.jpg,4,26,TRUE,252,1,1551.9064,55,DON'T EAT                                    EAT,1551.2327,1543.1763,1493.3862,right,1,left,left,not_eat,not_eat,avoid,neg,avoid-neg,1,1,673.7000000001863
sub-055,254,2,FALSE,right,avoid,neg,fungus40_crop.jpg,4,26,TRUE,253,1,1553.8942,55,DON'T EAT                                    EAT,1553.251,1543.1763,1493.3862,right,1,left,left,not_eat,not_eat,avoid,neg,avoid-neg,1,1,643.1999999999534
sub-055,255,2,TRUE,right,approach,pos,cake25_crop.jpg,4,26,TRUE,254,2,1556.2361,55,DON'T EAT                                    EAT,1555.2697,1543.1763,1493.3862,right,2,right,right,eat,eat,avoid,neg,avoid-neg,1,1,966.4000000001397
sub-055,256,2,FALSE,right,avoid,neg,fungus21_crop.jpg,4,26,TRUE,255,1,1558.0063,55,DON'T EAT                                    EAT,1557.288,1543.1763,1493.3862,right,1,left,left,not_eat,not_eat,avoid,neg,avoid-neg,1,1,718.3000000000466
sub-055,257,2,FALSE,right,avoid,neg,fungus29_crop.jpg,4,26,TRUE,256,1,1559.9165,55,DON'T EAT                                    EAT,1559.3064,1543.1763,1493.3862,right,1,left,left,not_eat,not_eat,avoid,neg,avoid-neg,1,1,610.1000000000931
sub-055,258,2,FALSE,right,avoid,neg,fungus33_crop.jpg,4,26,TRUE,257,1,1561.8945,55,DON'T EAT                                    EAT,1561.3246,1543.1763,1493.3862,right,1,left,left,not_eat,not_eat,avoid,neg,avoid-neg,1,1,569.9000000001397
sub-055,259,2,FALSE,right,avoid,neg,fungus4_crop.jpg,4,26,TRUE,258,1,1563.9244,55,DON'T EAT                                    EAT,1563.3429,1543.1763,1493.3862,right,1,left,left,not_eat,not_eat,avoid,neg,avoid-neg,1,1,581.5
sub-055,260,2,TRUE,right,approach,neg,insect25_crop.jpg,4,26,TRUE,259,2,1566.2498,55,DON'T EAT                                    EAT,1565.361,1543.1763,1493.3862,right,2,right,right,eat,eat,avoid,neg,avoid-neg,1,1,888.8000000000466
sub-055,261,1,FALSE,left,avoid,neg,fungus6_crop.jpg,4,27,TRUE,260,1,1584.5483,55,DON'T EAT                                    EAT,1583.676,1579.6561,1493.3862,right,1,left,left,not_eat,not_eat,avoid,neg,avoid-neg,1,1,872.2999999998137
sub-055,262,1,FALSE,left,avoid,neg,fungus26_crop.jpg,4,27,TRUE,261,1,1586.2344,55,DON'T EAT                                    EAT,1585.6948,1579.6561,1493.3862,right,1,left,left,not_eat,not_eat,avoid,neg,avoid-neg,1,1,539.6000000000931
sub-055,263,1,FALSE,left,avoid,neg,fungus15_crop.jpg,4,27,TRUE,262,1,1588.3875,55,DON'T EAT                                    EAT,1587.713,1579.6561,1493.3862,right,1,left,left,not_eat,not_eat,avoid,neg,avoid-neg,1,1,674.5
sub-055,264,1,TRUE,left,approach,neg,insect1_crop.jpg,4,27,TRUE,263,2,1590.5852,55,DON'T EAT                                    EAT,1589.7313,1579.6561,1493.3862,right,2,right,right,eat,eat,avoid,neg,avoid-neg,1,1,853.9000000001397
sub-055,265,1,FALSE,left,avoid,neg,fungus3_crop.jpg,4,27,TRUE,264,1,1592.483,55,DON'T EAT                                    EAT,1591.75,1579.6561,1493.3862,right,1,left,left,not_eat,not_eat,avoid,neg,avoid-neg,1,1,733
sub-055,266,1,FALSE,left,avoid,neg,fungus19_crop.jpg,4,27,TRUE,265,1,1594.5548,55,DON'T EAT                                    EAT,1593.7678,1579.6561,1493.3862,right,1,left,left,not_eat,not_eat,avoid,neg,avoid-neg,1,1,786.9999999997672
sub-055,267,1,FALSE,left,avoid,neg,fungus5_crop.jpg,4,27,TRUE,266,1,1596.6322,55,DON'T EAT                                    EAT,1595.7865,1579.6561,1493.3862,right,1,left,left,not_eat,not_eat,avoid,neg,avoid-neg,1,1,845.6999999999534
sub-055,268,1,TRUE,left,approach,pos,cake2_crop.jpg,4,27,TRUE,267,2,1598.7229,55,DON'T EAT                                    EAT,1597.8049,1579.6561,1493.3862,right,2,right,right,eat,eat,avoid,neg,avoid-neg,1,1,917.9999999997672
sub-055,269,1,FALSE,left,avoid,neg,fungus18_crop.jpg,4,27,TRUE,268,1,1600.4652,55,DON'T EAT                                    EAT,1599.8234,1579.6561,1493.3862,right,1,left,left,not_eat,not_eat,avoid,neg,avoid-neg,1,1,641.8000000002794
sub-055,270,1,FALSE,left,avoid,neg,fungus8_crop.jpg,4,27,TRUE,269,1,1602.542,55,DON'T EAT                                    EAT,1601.8414,1579.6561,1493.3862,right,1,left,left,not_eat,not_eat,avoid,neg,avoid-neg,1,1,700.6000000000931
sub-055,271,0,TRUE,left,approach,pos,cake14_crop.jpg,4,28,TRUE,270,2,1622.6105,55,DON'T EAT                                    EAT,1621.7412,1617.7214,1493.3862,right,2,right,right,eat,eat,avoid,neg,avoid-neg,1,1,869.3000000000466
sub-055,272,0,FALSE,left,avoid,neg,fungus27_crop.jpg,4,28,TRUE,271,1,1624.5271,55,DON'T EAT                                    EAT,1623.7598,1617.7214,1493.3862,right,1,left,left,not_eat,not_eat,avoid,neg,avoid-neg,1,1,767.3000000000466
sub-055,273,0,FALSE,left,avoid,neg,fungus21_crop.jpg,4,28,TRUE,272,1,1626.3397,55,DON'T EAT                                    EAT,1625.7778,1617.7214,1493.3862,right,1,left,left,not_eat,not_eat,avoid,neg,avoid-neg,1,1,561.8999999999069
sub-055,274,0,FALSE,left,avoid,neg,fungus2_crop.jpg,4,28,TRUE,273,1,1628.3762,55,DON'T EAT                                    EAT,1627.7965,1617.7214,1493.3862,right,1,left,left,not_eat,not_eat,avoid,neg,avoid-neg,1,1,579.6999999999534
sub-055,275,0,FALSE,left,avoid,neg,fungus1_crop.jpg,4,28,TRUE,274,1,1630.3533,55,DON'T EAT                                    EAT,1629.8148,1617.7214,1493.3862,right,1,left,left,not_eat,not_eat,avoid,neg,avoid-neg,1,1,538.5
sub-055,276,0,FALSE,left,avoid,neg,fungus38_crop.jpg,4,28,TRUE,275,1,1632.351,55,DON'T EAT                                    EAT,1631.833,1617.7214,1493.3862,right,1,left,left,not_eat,not_eat,avoid,neg,avoid-neg,1,1,518
sub-055,277,0,FALSE,left,avoid,neg,fungus25_crop.jpg,4,28,TRUE,276,1,1634.3696,55,DON'T EAT                                    EAT,1633.8514,1617.7214,1493.3862,right,1,left,left,not_eat,not_eat,avoid,neg,avoid-neg,1,1,518.2000000001863
sub-055,278,0,FALSE,left,avoid,neg,fungus17_crop.jpg,4,28,TRUE,277,1,1636.5751,55,DON'T EAT                                    EAT,1635.8699,1617.7214,1493.3862,right,1,left,left,not_eat,not_eat,avoid,neg,avoid-neg,1,1,705.2000000001863
sub-055,279,0,TRUE,left,approach,neg,insect21_crop.jpg,4,28,TRUE,278,2,1638.7649,55,DON'T EAT                                    EAT,1637.888,1617.7214,1493.3862,right,2,right,right,eat,eat,avoid,neg,avoid-neg,1,1,876.8999999999069
sub-055,280,0,FALSE,left,avoid,neg,fungus37_crop.jpg,4,28,TRUE,279,1,1640.6046,55,DON'T EAT                                    EAT,1639.9065,1617.7214,1493.3862,right,1,left,left,not_eat,not_eat,avoid,neg,avoid-neg,1,1,698.0999999998603
sub-055,281,0,TRUE,left,avoid,neg,fungus40_crop.jpg,4,29,TRUE,280,1,1658.9976,55,DON'T EAT                                    EAT,1658.2382,1654.2185,1493.3862,right,1,left,left,not_eat,not_eat,approach,pos,approach-pos,1,1,759.3999999999069
sub-055,282,0,FALSE,left,approach,pos,cake29_crop.jpg,4,29,TRUE,281,2,1661.1664,55,DON'T EAT                                    EAT,1660.2567,1654.2185,1493.3862,right,2,right,right,eat,eat,approach,pos,approach-pos,1,1,909.7000000001863
sub-055,283,0,FALSE,left,approach,pos,cake9_crop.jpg,4,29,TRUE,282,2,1662.9341,55,DON'T EAT                                    EAT,1662.2751,1654.2185,1493.3862,right,2,right,right,eat,eat,approach,pos,approach-pos,1,1,658.9999999997672
sub-055,284,0,FALSE,left,approach,pos,cake16_crop.jpg,4,29,TRUE,283,2,1664.8723,55,DON'T EAT                                    EAT,1664.2935,1654.2185,1493.3862,right,2,right,right,eat,eat,approach,pos,approach-pos,1,1,578.8000000000466
sub-055,285,0,FALSE,left,approach,pos,cake3_crop.jpg,4,29,TRUE,284,2,1666.9642,55,DON'T EAT                                    EAT,1666.3115,1654.2185,1493.3862,right,2,right,right,eat,eat,approach,pos,approach-pos,1,1,652.6999999999534
sub-055,286,0,FALSE,left,approach,pos,cake25_crop.jpg,4,29,TRUE,285,2,1668.8418,55,DON'T EAT                                    EAT,1668.3301,1654.2185,1493.3862,right,2,right,right,eat,eat,approach,pos,approach-pos,1,1,511.69999999995343
sub-055,287,0,TRUE,left,avoid,pos,meat32_crop.jpg,4,29,TRUE,286,1,1671.2449,55,DON'T EAT                                    EAT,1670.3485,1654.2185,1493.3862,right,1,left,left,not_eat,not_eat,approach,pos,approach-pos,1,1,896.3999999999069
sub-055,288,0,FALSE,left,approach,pos,cake18_crop.jpg,4,29,TRUE,287,2,1673.442,55,DON'T EAT                                    EAT,1672.3668,1654.2185,1493.3862,right,2,right,right,eat,eat,approach,pos,approach-pos,1,1,1075.1999999999534
sub-055,289,0,FALSE,left,approach,pos,cake11_crop.jpg,4,29,TRUE,288,2,1675.2177,55,DON'T EAT                                    EAT,1674.3851,1654.2185,1493.3862,right,2,right,right,eat,eat,approach,pos,approach-pos,1,1,832.6000000000931
sub-055,290,0,FALSE,left,approach,pos,cake30_crop.jpg,4,29,TRUE,289,2,1677.2811,55,DON'T EAT                                    EAT,1676.4033,1654.2185,1493.3862,right,2,right,right,eat,eat,approach,pos,approach-pos,1,1,877.7999999998137
sub-055,291,2,TRUE,right,avoid,pos,meat21_crop.jpg,4,30,TRUE,290,1,1694.724,55,DON'T EAT                                    EAT,1693.8514,1689.8312,1493.3862,right,1,left,left,not_eat,not_eat,approach,neg,approach-neg,1,1,872.6000000000931
sub-055,292,2,FALSE,right,approach,neg,insect1_crop.jpg,4,30,TRUE,291,2,1696.6711,55,DON'T EAT                                    EAT,1695.8696,1689.8312,1493.3862,right,2,right,right,eat,eat,approach,neg,approach-neg,1,1,801.5
sub-055,293,2,FALSE,right,approach,neg,insect6_crop.jpg,4,30,TRUE,292,2,1698.5764,55,DON'T EAT                                    EAT,1697.8878,1689.8312,1493.3862,right,2,right,right,eat,eat,approach,neg,approach-neg,1,1,688.5999999998603
sub-055,294,2,FALSE,right,approach,neg,insect35_crop.jpg,4,30,TRUE,293,2,1700.6554,55,DON'T EAT                                    EAT,1699.9064,1689.8312,1493.3862,right,2,right,right,eat,eat,approach,neg,approach-neg,1,1,749
sub-055,295,2,FALSE,right,approach,neg,insect16_crop.jpg,4,30,TRUE,294,2,1702.5328,55,DON'T EAT                                    EAT,1701.9247,1689.8312,1493.3862,right,2,right,right,eat,eat,approach,neg,approach-neg,1,1,608.1000000000931
sub-055,296,2,FALSE,right,approach,neg,insect9_crop.jpg,4,30,TRUE,295,2,1704.5891,55,DON'T EAT                                    EAT,1703.9429,1689.8312,1493.3862,right,2,right,right,eat,eat,approach,neg,approach-neg,1,1,646.1999999999534
sub-055,297,2,FALSE,right,approach,neg,insect7_crop.jpg,4,30,TRUE,296,2,1706.6467,55,DON'T EAT                                    EAT,1705.9614,1689.8312,1493.3862,right,2,right,right,eat,eat,approach,neg,approach-neg,1,1,685.3000000000466
sub-055,298,2,TRUE,right,avoid,neg,fungus28_crop.jpg,4,30,TRUE,297,1,1708.8596,55,DON'T EAT                                    EAT,1707.9797,1689.8312,1493.3862,right,1,left,left,not_eat,not_eat,approach,neg,approach-neg,1,1,879.8999999999069
sub-055,299,2,FALSE,right,approach,neg,insect23_crop.jpg,4,30,TRUE,298,2,1710.9941,55,DON'T EAT                                    EAT,1709.998,1689.8312,1493.3862,right,2,right,right,eat,eat,approach,neg,approach-neg,1,1,996.0999999998603
sub-055,300,2,FALSE,right,approach,neg,insect39_crop.jpg,4,30,TRUE,299,2,1712.5636,55,DON'T EAT                                    EAT,1712.0165,1689.8312,1493.3862,right,2,right,right,eat,eat,approach,neg,approach-neg,1,1,547.0999999998603
sub-055,301,3,FALSE,right,avoid,neg,fungus30_crop.jpg,4,31,TRUE,300,1,1731.7437,55,DON'T EAT                                    EAT,1730.9822,1726.9622,1493.3862,right,1,left,left,not_eat,not_eat,avoid,neg,avoid-neg,1,1,761.5
sub-055,302,3,FALSE,right,avoid,neg,fungus11_crop.jpg,4,31,TRUE,301,1,1733.7216,55,DON'T EAT                                    EAT,1733.0006,1726.9622,1493.3862,right,1,left,left,not_eat,not_eat,avoid,neg,avoid-neg,1,1,721
sub-055,303,3,FALSE,right,avoid,neg,fungus27_crop.jpg,4,31,TRUE,302,1,1735.5718,55,DON'T EAT                                    EAT,1735.0183,1726.9622,1493.3862,right,1,left,left,not_eat,not_eat,avoid,neg,avoid-neg,1,1,553.5
sub-055,304,3,FALSE,right,avoid,neg,fungus17_crop.jpg,4,31,TRUE,303,1,1737.6934,55,DON'T EAT                                    EAT,1737.0369,1726.9622,1493.3862,right,1,left,left,not_eat,not_eat,avoid,neg,avoid-neg,1,1,656.5
sub-055,305,3,FALSE,right,avoid,neg,fungus18_crop.jpg,4,31,TRUE,304,1,1739.6372,55,DON'T EAT                                    EAT,1739.0555,1726.9622,1493.3862,right,1,left,left,not_eat,not_eat,avoid,neg,avoid-neg,1,1,581.6999999999534
sub-055,306,3,TRUE,right,approach,pos,cake26_crop.jpg,4,31,TRUE,305,2,1741.7781,55,DON'T EAT                                    EAT,1741.0736,1726.9622,1493.3862,right,2,right,right,eat,eat,avoid,neg,avoid-neg,1,1,704.5000000002328
sub-055,307,3,FALSE,right,avoid,neg,fungus38_crop.jpg,4,31,TRUE,306,1,1743.6174,55,DON'T EAT                                    EAT,1743.0922,1726.9622,1493.3862,right,1,left,left,not_eat,not_eat,avoid,neg,avoid-neg,1,1,525.2000000001863
sub-055,308,3,TRUE,right,approach,neg,insect20_crop.jpg,4,31,TRUE,307,2,1745.9476,55,DON'T EAT                                    EAT,1745.11,1726.9622,1493.3862,right,2,right,right,eat,eat,avoid,neg,avoid-neg,1,1,837.5999999998603
sub-055,309,3,FALSE,right,avoid,neg,fungus9_crop.jpg,4,31,TRUE,308,1,1747.8903,55,DON'T EAT                                    EAT,1747.129,1726.9622,1493.3862,right,1,left,left,not_eat,not_eat,avoid,neg,avoid-neg,1,1,761.3000000000466
sub-055,310,3,FALSE,right,avoid,neg,fungus32_crop.jpg,4,31,TRUE,309,1,1749.6975,55,DON'T EAT                                    EAT,1749.1472,1726.9622,1493.3862,right,1,left,left,not_eat,not_eat,avoid,neg,avoid-neg,1,1,550.2999999998137
sub-055,311,2,TRUE,left,approach,pos,cake38_crop.jpg,4,32,TRUE,310,2,1766.477,55,DON'T EAT                                    EAT,1765.694,1761.6906,1493.3862,right,2,right,right,eat,eat,avoid,neg,avoid-neg,1,1,783
sub-055,312,2,FALSE,left,avoid,neg,fungus11_crop.jpg,4,32,TRUE,311,1,1768.3768,55,DON'T EAT                                    EAT,1767.7123,1761.6906,1493.3862,right,1,left,left,not_eat,not_eat,avoid,neg,avoid-neg,1,1,664.5000000002328
sub-055,313,2,FALSE,left,avoid,neg,fungus30_crop.jpg,4,32,TRUE,312,1,1770.3013,55,DON'T EAT                                    EAT,1769.7311,1761.6906,1493.3862,right,1,left,left,not_eat,not_eat,avoid,neg,avoid-neg,1,1,570.2000000001863
sub-055,314,2,FALSE,left,avoid,neg,fungus16_crop.jpg,4,32,TRUE,313,1,1772.3541,55,DON'T EAT                                    EAT,1771.7494,1761.6906,1493.3862,right,1,left,left,not_eat,not_eat,avoid,neg,avoid-neg,1,1,604.7000000001863
sub-055,315,2,FALSE,left,avoid,neg,fungus22_crop.jpg,4,32,TRUE,314,1,1774.381,55,DON'T EAT                                    EAT,1773.7677,1761.6906,1493.3862,right,1,left,left,not_eat,not_eat,avoid,neg,avoid-neg,1,1,613.2999999998137
sub-055,316,2,FALSE,left,avoid,neg,fungus20_crop.jpg,4,32,TRUE,315,1,1776.5543,55,DON'T EAT                                    EAT,1775.786,1761.6906,1493.3862,right,1,left,left,not_eat,not_eat,avoid,neg,avoid-neg,1,1,768.3000000000466
sub-055,317,2,FALSE,left,avoid,neg,fungus24_crop.jpg,4,32,TRUE,316,1,1778.3661,55,DON'T EAT                                    EAT,1777.8043,1761.6906,1493.3862,right,1,left,left,not_eat,not_eat,avoid,neg,avoid-neg,1,1,561.7999999998137
sub-055,318,2,TRUE,left,approach,neg,insect3_crop.jpg,4,32,TRUE,317,2,1780.8346,55,DON'T EAT                                    EAT,1779.8228,1761.6906,1493.3862,right,2,right,right,eat,eat,avoid,neg,avoid-neg,1,1,1011.8000000000466
sub-055,319,2,FALSE,left,avoid,neg,fungus35_crop.jpg,4,32,TRUE,318,1,1782.5172,55,DON'T EAT                                    EAT,1781.841,1761.6906,1493.3862,right,1,left,left,not_eat,not_eat,avoid,neg,avoid-neg,1,1,676.1999999999534
sub-055,320,2,FALSE,left,avoid,neg,fungus33_crop.jpg,4,32,TRUE,319,1,1784.8193,55,DON'T EAT                                    EAT,1783.8593,1761.6906,1493.3862,right,1,left,left,not_eat,not_eat,avoid,neg,avoid-neg,1,1,960
