subject,trial_number,n_block,catch,hand,mot,val,stim_name,run_number,num_block,ran,order,response,time_of_response,subject_number,left_side_resp_label,trial_onset,blk_instr_onset,baseline_onset,response_hand,response_cleaned,response_lat,response_lat_cleaned,response_meaning,response_meaning_cleaned,condition_mot,condition_val,condition,correct,correct_cleaned,rt
sub-059,1,0,FALSE,left,approach,pos,cake29_crop.jpg,1,1,TRUE,0,2,2057.41,59,DON'T EAT                                    EAT,2056.4067,2052.3867,2040.109,left,2,right,right,eat,eat,approach,pos,approach-pos,1,1,1003.2999999998137
sub-059,2,0,TRUE,left,avoid,pos,meat35_crop.jpg,1,1,TRUE,1,1,2059.7793,59,DON'T EAT                                    EAT,2058.4253,2052.3867,2040.109,left,1,left,left,not_eat,not_eat,approach,pos,approach-pos,1,1,1354.0000000002328
sub-059,3,0,FALSE,left,approach,pos,cake32_crop.jpg,1,1,TRUE,2,2,2061.5627,59,DON'T EAT                                    EAT,2060.4436,2052.3867,2040.109,left,2,right,right,eat,eat,approach,pos,approach-pos,1,1,1119.0999999998603
sub-059,4,0,FALSE,left,approach,pos,cake34_crop.jpg,1,1,TRUE,3,2,2064.0051,59,DON'T EAT                                    EAT,2062.4648,2052.3867,2040.109,left,2,right,right,eat,eat,approach,pos,approach-pos,1,1,1540.299999999581
sub-059,5,0,FALSE,left,approach,pos,cake8_crop.jpg,1,1,TRUE,4,2,2065.7,59,DON'T EAT                                    EAT,2064.4827,2052.3867,2040.109,left,2,right,right,eat,eat,approach,pos,approach-pos,1,1,1217.2999999998137
sub-059,6,0,TRUE,left,avoid,neg,fungus4_crop.jpg,1,1,TRUE,5,1,2067.6086,59,DON'T EAT                                    EAT,2066.4985,2052.3867,2040.109,left,1,left,left,not_eat,not_eat,approach,pos,approach-pos,1,1,1110.0999999998603
sub-059,7,0,FALSE,left,approach,pos,cake2_crop.jpg,1,1,TRUE,6,2,2069.3657,59,DON'T EAT                                    EAT,2068.517,2052.3867,2040.109,left,2,right,right,eat,eat,approach,pos,approach-pos,1,1,848.6999999999534
sub-059,8,0,FALSE,left,approach,pos,cake39_crop.jpg,1,1,TRUE,7,2,2071.5066,59,DON'T EAT                                    EAT,2070.5354,2052.3867,2040.109,left,2,right,right,eat,eat,approach,pos,approach-pos,1,1,971.1999999999534
sub-059,9,0,FALSE,left,approach,pos,cake18_crop.jpg,1,1,TRUE,8,2,2073.7268,59,DON'T EAT                                    EAT,2072.5537,2052.3867,2040.109,left,2,right,right,eat,eat,approach,pos,approach-pos,1,1,1173.0999999998603
sub-059,10,0,FALSE,left,approach,pos,cake22_crop.jpg,1,1,TRUE,9,2,2075.52,59,DON'T EAT                                    EAT,2074.5723,2052.3867,2040.109,left,2,right,right,eat,eat,approach,pos,approach-pos,1,1,947.7000000001863
sub-059,11,0,TRUE,right,avoid,neg,fungus18_crop.jpg,1,2,TRUE,10,1,2094.7234,59,DON'T EAT                                    EAT,2093.688,2089.668,2040.109,left,1,left,left,not_eat,not_eat,approach,neg,approach-neg,1,1,1035.3999999999069
sub-059,12,0,FALSE,right,approach,neg,insect27_crop.jpg,1,2,TRUE,11,2,2096.944,59,DON'T EAT                                    EAT,2095.7063,2089.668,2040.109,left,2,right,right,eat,eat,approach,neg,approach-neg,1,1,1237.7000000001863
sub-059,13,0,FALSE,right,approach,neg,insect20_crop.jpg,1,2,TRUE,12,2,2099.0232,59,DON'T EAT                                    EAT,2097.7246,2089.668,2040.109,left,2,right,right,eat,eat,approach,neg,approach-neg,1,1,1298.6000000000931
sub-059,14,0,FALSE,right,approach,neg,insect18_crop.jpg,1,2,TRUE,13,2,2100.5771,59,DON'T EAT                                    EAT,2099.743,2089.668,2040.109,left,2,right,right,eat,eat,approach,neg,approach-neg,1,1,834.1000000000931
sub-059,15,0,FALSE,right,approach,neg,insect9_crop.jpg,1,2,TRUE,14,2,2102.49,59,DON'T EAT                                    EAT,2101.7612,2089.668,2040.109,left,2,right,right,eat,eat,approach,neg,approach-neg,1,1,728.8000000002794
sub-059,16,0,FALSE,right,approach,neg,insect3_crop.jpg,1,2,TRUE,15,2,2105.1443,59,DON'T EAT                                    EAT,2103.7795,2089.668,2040.109,left,2,right,right,eat,eat,approach,neg,approach-neg,1,1,1364.7999999998137
sub-059,17,0,TRUE,right,avoid,pos,meat18_crop.jpg,1,2,TRUE,16,1,2106.9062,59,DON'T EAT                                    EAT,2105.7979,2089.668,2040.109,left,1,left,left,not_eat,not_eat,approach,neg,approach-neg,1,1,1108.2999999998137
sub-059,18,0,FALSE,right,approach,neg,insect8_crop.jpg,1,2,TRUE,17,2,2109.55,59,DON'T EAT                                    EAT,2107.8162,2089.668,2040.109,left,2,right,right,eat,eat,approach,neg,approach-neg,1,1,1733.7999999998137
sub-059,19,0,FALSE,right,approach,neg,insect2_crop.jpg,1,2,TRUE,18,2,2111.2075,59,DON'T EAT                                    EAT,2109.8347,2089.668,2040.109,left,2,right,right,eat,eat,approach,neg,approach-neg,1,1,1372.8000000002794
sub-059,20,0,FALSE,right,approach,neg,insect21_crop.jpg,1,2,TRUE,19,2,2112.9824,59,DON'T EAT                                    EAT,2111.853,2089.668,2040.109,left,2,right,right,eat,eat,approach,neg,approach-neg,1,1,1129.3999999999069
sub-059,21,3,FALSE,right,approach,pos,cake24_crop.jpg,1,3,TRUE,20,2,2128.9485,59,DON'T EAT                                    EAT,2127.9329,2123.9128,2040.109,left,2,right,right,eat,eat,approach,pos,approach-pos,1,1,1015.6000000000931
sub-059,22,3,FALSE,right,approach,pos,cake9_crop.jpg,1,3,TRUE,21,2,2130.8584,59,DON'T EAT                                    EAT,2129.9514,2123.9128,2040.109,left,2,right,right,eat,eat,approach,pos,approach-pos,1,1,907
sub-059,23,3,TRUE,right,avoid,neg,fungus29_crop.jpg,1,3,TRUE,22,--,NA,59,DON'T EAT                                    EAT,2131.9697,2123.9128,2040.109,left,--,NA,NA,no_response,no_response,approach,pos,approach-pos,NA,NA,NA
sub-059,24,3,FALSE,right,approach,pos,cake19_crop.jpg,1,3,TRUE,23,1,2134.174,59,DON'T EAT                                    EAT,2133.9875,2123.9128,2040.109,left,1,left,left,not_eat,not_eat,approach,pos,approach-pos,0,0,186.5
sub-059,25,3,FALSE,right,approach,pos,cake16_crop.jpg,1,3,TRUE,24,2,2136.8208,59,DON'T EAT                                    EAT,2136.0063,2123.9128,2040.109,left,2,right,right,eat,eat,approach,pos,approach-pos,1,1,814.5
sub-059,26,3,FALSE,right,approach,pos,cake17_crop.jpg,1,3,TRUE,25,2,2138.7126,59,DON'T EAT                                    EAT,2138.0247,2123.9128,2040.109,left,2,right,right,eat,eat,approach,pos,approach-pos,1,1,687.8999999999069
sub-059,27,3,FALSE,right,approach,pos,cake30_crop.jpg,1,3,TRUE,26,2,2140.8877,59,DON'T EAT                                    EAT,2140.043,2123.9128,2040.109,left,2,right,right,eat,eat,approach,pos,approach-pos,1,1,844.7000000001863
sub-059,28,3,FALSE,right,approach,pos,cake23_crop.jpg,1,3,TRUE,27,2,2142.7983,59,DON'T EAT                                    EAT,2142.0615,2123.9128,2040.109,left,2,right,right,eat,eat,approach,pos,approach-pos,1,1,736.7999999998137
sub-059,29,3,TRUE,right,avoid,pos,meat12_crop.jpg,1,3,TRUE,28,1,2145.0432,59,DON'T EAT                                    EAT,2144.0798,2123.9128,2040.109,left,1,left,left,not_eat,not_eat,approach,pos,approach-pos,1,1,963.4000000003725
sub-059,30,3,FALSE,right,approach,pos,cake38_crop.jpg,1,3,TRUE,29,2,2146.9673,59,DON'T EAT                                    EAT,2146.0981,2123.9128,2040.109,left,2,right,right,eat,eat,approach,pos,approach-pos,1,1,869.1999999997206
sub-059,31,0,FALSE,right,avoid,pos,meat20_crop.jpg,1,4,TRUE,30,1,2164.555,59,DON'T EAT                                    EAT,2163.3623,2159.3425,2040.109,left,1,left,left,not_eat,not_eat,avoid,pos,avoid-pos,1,1,1192.7000000001863
sub-059,32,0,FALSE,right,avoid,pos,meat30_crop.jpg,1,4,TRUE,31,1,2166.3662,59,DON'T EAT                                    EAT,2165.3804,2159.3425,2040.109,left,1,left,left,not_eat,not_eat,avoid,pos,avoid-pos,1,1,985.7999999998137
sub-059,33,0,FALSE,right,avoid,pos,meat24_crop.jpg,1,4,TRUE,32,1,2168.31,59,DON'T EAT                                    EAT,2167.3992,2159.3425,2040.109,left,1,left,left,not_eat,not_eat,avoid,pos,avoid-pos,1,1,910.8000000002794
sub-059,34,0,TRUE,right,approach,pos,cake27_crop.jpg,1,4,TRUE,33,2,2170.8384,59,DON'T EAT                                    EAT,2169.4175,2159.3425,2040.109,left,2,right,right,eat,eat,avoid,pos,avoid-pos,1,1,1420.8999999999069
sub-059,35,0,FALSE,right,avoid,pos,meat38_crop.jpg,1,4,TRUE,34,1,2172.5254,59,DON'T EAT                                    EAT,2171.4358,2159.3425,2040.109,left,1,left,left,not_eat,not_eat,avoid,pos,avoid-pos,1,1,1089.5999999996275
sub-059,36,0,FALSE,right,avoid,pos,meat25_crop.jpg,1,4,TRUE,35,1,2175.3965,59,DON'T EAT                                    EAT,2173.454,2159.3425,2040.109,left,1,left,left,not_eat,not_eat,avoid,pos,avoid-pos,1,1,1942.5
sub-059,37,0,FALSE,right,avoid,pos,meat13_crop.jpg,1,4,TRUE,36,1,2176.953,59,DON'T EAT                                    EAT,2175.4722,2159.3425,2040.109,left,1,left,left,not_eat,not_eat,avoid,pos,avoid-pos,1,1,1480.7999999998137
sub-059,38,0,FALSE,right,avoid,pos,meat11_crop.jpg,1,4,TRUE,37,1,2178.5146,59,DON'T EAT                                    EAT,2177.4907,2159.3425,2040.109,left,1,left,left,not_eat,not_eat,avoid,pos,avoid-pos,1,1,1023.9000000003725
sub-059,39,0,TRUE,right,approach,neg,insect16_crop.jpg,1,4,TRUE,38,2,2180.3958,59,DON'T EAT                                    EAT,2179.5093,2159.3425,2040.109,left,2,right,right,eat,eat,avoid,pos,avoid-pos,1,1,886.4999999995343
sub-059,40,0,FALSE,right,avoid,pos,meat8_crop.jpg,1,4,TRUE,39,1,2182.4663,59,DON'T EAT                                    EAT,2181.5276,2159.3425,2040.109,left,1,left,left,not_eat,not_eat,avoid,pos,avoid-pos,1,1,938.6999999997206
sub-059,41,1,FALSE,left,approach,pos,cake1_crop.jpg,1,5,TRUE,40,2,2200.8357,59,DON'T EAT                                    EAT,2200.043,2196.023,2040.109,left,2,right,right,eat,eat,approach,pos,approach-pos,1,1,792.7000000001863
sub-059,42,1,FALSE,left,approach,pos,cake31_crop.jpg,1,5,TRUE,41,2,2202.7695,59,DON'T EAT                                    EAT,2202.0613,2196.023,2040.109,left,2,right,right,eat,eat,approach,pos,approach-pos,1,1,708.2000000001863
sub-059,43,1,FALSE,left,approach,pos,cake11_crop.jpg,1,5,TRUE,42,2,2204.8335,59,DON'T EAT                                    EAT,2204.0796,2196.023,2040.109,left,2,right,right,eat,eat,approach,pos,approach-pos,1,1,753.8999999999069
sub-059,44,1,FALSE,left,approach,pos,cake21_crop.jpg,1,5,TRUE,43,2,2206.9438,59,DON'T EAT                                    EAT,2206.098,2196.023,2040.109,left,2,right,right,eat,eat,approach,pos,approach-pos,1,1,845.7999999998137
sub-059,45,1,FALSE,left,approach,pos,cake9_crop.jpg,1,5,TRUE,44,2,2208.7834,59,DON'T EAT                                    EAT,2208.1162,2196.023,2040.109,left,2,right,right,eat,eat,approach,pos,approach-pos,1,1,667.2000000001863
sub-059,46,1,FALSE,left,approach,pos,cake10_crop.jpg,1,5,TRUE,45,2,2211.0432,59,DON'T EAT                                    EAT,2210.1345,2196.023,2040.109,left,2,right,right,eat,eat,approach,pos,approach-pos,1,1,908.7000000001863
sub-059,47,1,TRUE,left,avoid,neg,fungus37_crop.jpg,1,5,TRUE,46,1,2213.2,59,DON'T EAT                                    EAT,2212.1528,2196.023,2040.109,left,1,left,left,not_eat,not_eat,approach,pos,approach-pos,1,1,1047.2000000001863
sub-059,48,1,FALSE,left,approach,pos,cake37_crop.jpg,1,5,TRUE,47,2,2215.1868,59,DON'T EAT                                    EAT,2214.1714,2196.023,2040.109,left,2,right,right,eat,eat,approach,pos,approach-pos,1,1,1015.3999999994412
sub-059,49,1,TRUE,left,avoid,pos,meat14_crop.jpg,1,5,TRUE,48,1,2217.4053,59,DON'T EAT                                    EAT,2216.1897,2196.023,2040.109,left,1,left,left,not_eat,not_eat,approach,pos,approach-pos,1,1,1215.6000000000931
sub-059,50,1,FALSE,left,approach,pos,cake35_crop.jpg,1,5,TRUE,49,2,2219.0925,59,DON'T EAT                                    EAT,2218.2075,2196.023,2040.109,left,2,right,right,eat,eat,approach,pos,approach-pos,1,1,885
sub-059,51,2,FALSE,left,approach,neg,insect35_crop.jpg,1,6,TRUE,50,2,2238.7515,59,DON'T EAT                                    EAT,2237.9575,2233.9377,2040.109,left,2,right,right,eat,eat,approach,neg,approach-neg,1,1,794
sub-059,52,2,FALSE,left,approach,neg,insect16_crop.jpg,1,6,TRUE,51,2,2240.5674,59,DON'T EAT                                    EAT,2239.976,2233.9377,2040.109,left,2,right,right,eat,eat,approach,neg,approach-neg,1,1,591.3999999999069
sub-059,53,2,FALSE,left,approach,neg,insect17_crop.jpg,1,6,TRUE,52,2,2242.89,59,DON'T EAT                                    EAT,2241.9944,2233.9377,2040.109,left,2,right,right,eat,eat,approach,neg,approach-neg,1,1,895.6000000000931
sub-059,54,2,FALSE,left,approach,neg,insect6_crop.jpg,1,6,TRUE,53,2,2244.5813,59,DON'T EAT                                    EAT,2244.013,2233.9377,2040.109,left,2,right,right,eat,eat,approach,neg,approach-neg,1,1,568.2999999998137
sub-059,55,2,FALSE,left,approach,neg,insect18_crop.jpg,1,6,TRUE,54,2,2246.7607,59,DON'T EAT                                    EAT,2246.031,2233.9377,2040.109,left,2,right,right,eat,eat,approach,neg,approach-neg,1,1,729.6999999997206
sub-059,56,2,TRUE,left,avoid,pos,meat8_crop.jpg,1,6,TRUE,55,1,2248.8433,59,DON'T EAT                                    EAT,2248.0493,2233.9377,2040.109,left,1,left,left,not_eat,not_eat,approach,neg,approach-neg,1,1,793.9999999995343
sub-059,57,2,TRUE,left,avoid,neg,fungus25_crop.jpg,1,6,TRUE,56,1,2251.2732,59,DON'T EAT                                    EAT,2250.0679,2233.9377,2040.109,left,1,left,left,not_eat,not_eat,approach,neg,approach-neg,1,1,1205.3000000002794
sub-059,58,2,FALSE,left,approach,neg,insect7_crop.jpg,1,6,TRUE,57,2,2253.139,59,DON'T EAT                                    EAT,2252.0862,2233.9377,2040.109,left,2,right,right,eat,eat,approach,neg,approach-neg,1,1,1052.7999999998137
sub-059,59,2,FALSE,left,approach,neg,insect23_crop.jpg,1,6,TRUE,58,2,2255.1475,59,DON'T EAT                                    EAT,2254.104,2233.9377,2040.109,left,2,right,right,eat,eat,approach,neg,approach-neg,1,1,1043.5
sub-059,60,2,FALSE,left,approach,neg,insect34_crop.jpg,1,6,TRUE,59,2,2256.8438,59,DON'T EAT                                    EAT,2256.1226,2233.9377,2040.109,left,2,right,right,eat,eat,approach,neg,approach-neg,1,1,721.2000000001863
sub-059,61,0,FALSE,left,approach,neg,insect8_crop.jpg,1,7,TRUE,60,2,2273.9292,59,DON'T EAT                                    EAT,2273.2537,2269.2336,2040.109,left,2,right,right,eat,eat,approach,neg,approach-neg,1,1,675.5
sub-059,62,0,TRUE,left,avoid,neg,fungus3_crop.jpg,1,7,TRUE,61,1,2276.378,59,DON'T EAT                                    EAT,2275.2722,2269.2336,2040.109,left,1,left,left,not_eat,not_eat,approach,neg,approach-neg,1,1,1105.8000000002794
sub-059,63,0,FALSE,left,approach,neg,insect12_crop.jpg,1,7,TRUE,62,2,2278.0417,59,DON'T EAT                                    EAT,2277.29,2269.2336,2040.109,left,2,right,right,eat,eat,approach,neg,approach-neg,1,1,751.7000000001863
sub-059,64,0,FALSE,left,approach,neg,insect14_crop.jpg,1,7,TRUE,63,2,2280.2747,59,DON'T EAT                                    EAT,2279.3088,2269.2336,2040.109,left,2,right,right,eat,eat,approach,neg,approach-neg,1,1,965.8999999999069
sub-059,65,0,FALSE,left,approach,neg,insect30_crop.jpg,1,7,TRUE,64,2,2281.9836,59,DON'T EAT                                    EAT,2281.3271,2269.2336,2040.109,left,2,right,right,eat,eat,approach,neg,approach-neg,1,1,656.5
sub-059,66,0,TRUE,left,avoid,pos,meat11_crop.jpg,1,7,TRUE,65,1,2284.1814,59,DON'T EAT                                    EAT,2283.3455,2269.2336,2040.109,left,1,left,left,not_eat,not_eat,approach,neg,approach-neg,1,1,835.8999999999069
sub-059,67,0,FALSE,left,approach,neg,insect28_crop.jpg,1,7,TRUE,66,2,2286.0867,59,DON'T EAT                                    EAT,2285.3638,2269.2336,2040.109,left,2,right,right,eat,eat,approach,neg,approach-neg,1,1,722.8999999994412
sub-059,68,0,FALSE,left,approach,neg,insect13_crop.jpg,1,7,TRUE,67,2,2288.184,59,DON'T EAT                                    EAT,2287.382,2269.2336,2040.109,left,2,right,right,eat,eat,approach,neg,approach-neg,1,1,802
sub-059,69,0,FALSE,left,approach,neg,insect9_crop.jpg,1,7,TRUE,68,2,2290.0645,59,DON'T EAT                                    EAT,2289.4001,2269.2336,2040.109,left,2,right,right,eat,eat,approach,neg,approach-neg,1,1,664.4000000003725
sub-059,70,0,FALSE,left,approach,neg,insect37_crop.jpg,1,7,TRUE,69,2,2292.698,59,DON'T EAT                                    EAT,2291.4185,2269.2336,2040.109,left,2,right,right,eat,eat,approach,neg,approach-neg,1,1,1279.5
sub-059,71,3,FALSE,left,avoid,pos,meat3_crop.jpg,1,8,TRUE,70,1,2311.9172,59,DON'T EAT                                    EAT,2310.768,2306.748,2040.109,left,1,left,left,not_eat,not_eat,avoid,pos,avoid-pos,1,1,1149.1999999997206
sub-059,72,3,FALSE,left,avoid,pos,meat28_crop.jpg,1,8,TRUE,71,1,2314.231,59,DON'T EAT                                    EAT,2312.7866,2306.748,2040.109,left,1,left,left,not_eat,not_eat,avoid,pos,avoid-pos,1,1,1444.3999999999069
sub-059,73,3,FALSE,left,avoid,pos,meat4_crop.jpg,1,8,TRUE,72,1,2315.9087,59,DON'T EAT                                    EAT,2314.805,2306.748,2040.109,left,1,left,left,not_eat,not_eat,avoid,pos,avoid-pos,1,1,1103.7000000001863
sub-059,74,3,FALSE,left,avoid,pos,meat32_crop.jpg,1,8,TRUE,73,1,2317.6694,59,DON'T EAT                                    EAT,2316.8232,2306.748,2040.109,left,1,left,left,not_eat,not_eat,avoid,pos,avoid-pos,1,1,846.2000000006519
sub-059,75,3,FALSE,left,avoid,pos,meat33_crop.jpg,1,8,TRUE,74,1,2320.3684,59,DON'T EAT                                    EAT,2318.8416,2306.748,2040.109,left,1,left,left,not_eat,not_eat,avoid,pos,avoid-pos,1,1,1526.7999999998137
sub-059,76,3,FALSE,left,avoid,pos,meat39_crop.jpg,1,8,TRUE,75,1,2321.821,59,DON'T EAT                                    EAT,2320.8599,2306.748,2040.109,left,1,left,left,not_eat,not_eat,avoid,pos,avoid-pos,1,1,961.1000000000931
sub-059,77,3,FALSE,left,avoid,pos,meat21_crop.jpg,1,8,TRUE,76,1,2323.597,59,DON'T EAT                                    EAT,2322.8782,2306.748,2040.109,left,1,left,left,not_eat,not_eat,avoid,pos,avoid-pos,1,1,718.7999999998137
sub-059,78,3,TRUE,left,approach,pos,cake23_crop.jpg,1,8,TRUE,77,2,2325.8623,59,DON'T EAT                                    EAT,2324.8965,2306.748,2040.109,left,2,right,right,eat,eat,avoid,pos,avoid-pos,1,1,965.7999999998137
sub-059,79,3,FALSE,left,avoid,pos,meat9_crop.jpg,1,8,TRUE,78,--,NA,59,DON'T EAT                                    EAT,2326.9148,2306.748,2040.109,left,--,NA,NA,no_response,no_response,avoid,pos,avoid-pos,NA,NA,NA
sub-059,80,3,TRUE,left,approach,neg,insect3_crop.jpg,1,8,TRUE,79,1,2330.171,59,DON'T EAT                                    EAT,2328.9329,2306.748,2040.109,left,1,left,left,not_eat,not_eat,avoid,pos,avoid-pos,0,0,1238.1000000000931
sub-059,81,3,FALSE,left,avoid,neg,fungus1_crop.jpg,2,9,TRUE,80,1,2427.8748,59,DON'T EAT                                    EAT,2426.8809,2422.8613,2409.2551,right,1,left,left,not_eat,not_eat,avoid,neg,avoid-neg,1,1,993.9000000003725
sub-059,82,3,FALSE,left,avoid,neg,fungus30_crop.jpg,2,9,TRUE,81,1,2430.3796,59,DON'T EAT                                    EAT,2428.8997,2422.8613,2409.2551,right,1,left,left,not_eat,not_eat,avoid,neg,avoid-neg,1,1,1479.9000000003725
sub-059,83,3,TRUE,left,approach,neg,insect39_crop.jpg,2,9,TRUE,82,2,2431.9841,59,DON'T EAT                                    EAT,2430.918,2422.8613,2409.2551,right,2,right,right,eat,eat,avoid,neg,avoid-neg,1,1,1066.1000000000931
sub-059,84,3,FALSE,left,avoid,neg,fungus9_crop.jpg,2,9,TRUE,83,1,2433.9736,59,DON'T EAT                                    EAT,2432.9363,2422.8613,2409.2551,right,1,left,left,not_eat,not_eat,avoid,neg,avoid-neg,1,1,1037.2999999998137
sub-059,85,3,FALSE,left,avoid,neg,fungus15_crop.jpg,2,9,TRUE,84,1,2435.7607,59,DON'T EAT                                    EAT,2434.9548,2422.8613,2409.2551,right,1,left,left,not_eat,not_eat,avoid,neg,avoid-neg,1,1,805.8999999999069
sub-059,86,3,FALSE,left,avoid,neg,fungus23_crop.jpg,2,9,TRUE,85,1,2437.8914,59,DON'T EAT                                    EAT,2436.973,2422.8613,2409.2551,right,1,left,left,not_eat,not_eat,avoid,neg,avoid-neg,1,1,918.3999999999069
sub-059,87,3,FALSE,left,avoid,neg,fungus7_crop.jpg,2,9,TRUE,86,1,2439.9006,59,DON'T EAT                                    EAT,2438.9912,2422.8613,2409.2551,right,1,left,left,not_eat,not_eat,avoid,neg,avoid-neg,1,1,909.4000000003725
sub-059,88,3,FALSE,left,avoid,neg,fungus36_crop.jpg,2,9,TRUE,87,1,2441.7593,59,DON'T EAT                                    EAT,2441.0098,2422.8613,2409.2551,right,1,left,left,not_eat,not_eat,avoid,neg,avoid-neg,1,1,749.5000000004657
sub-059,89,3,TRUE,left,approach,pos,cake33_crop.jpg,2,9,TRUE,88,2,2443.9473,59,DON'T EAT                                    EAT,2443.028,2422.8613,2409.2551,right,2,right,right,eat,eat,avoid,neg,avoid-neg,1,1,919.2999999998137
sub-059,90,3,FALSE,left,avoid,neg,fungus35_crop.jpg,2,9,TRUE,89,1,2446.96,59,DON'T EAT                                    EAT,2445.046,2422.8613,2409.2551,right,1,left,left,not_eat,not_eat,avoid,neg,avoid-neg,1,1,1914
sub-059,91,0,FALSE,left,avoid,pos,meat15_crop.jpg,2,10,TRUE,90,1,2465.027,59,DON'T EAT                                    EAT,2463.5283,2459.5083,2409.2551,right,1,left,left,not_eat,not_eat,avoid,pos,avoid-pos,1,1,1498.7000000001863
sub-059,92,0,FALSE,left,avoid,pos,meat7_crop.jpg,2,10,TRUE,91,1,2466.4043,59,DON'T EAT                                    EAT,2465.5466,2459.5083,2409.2551,right,1,left,left,not_eat,not_eat,avoid,pos,avoid-pos,1,1,857.7000000001863
sub-059,93,0,FALSE,left,avoid,pos,meat13_crop.jpg,2,10,TRUE,92,1,2468.3271,59,DON'T EAT                                    EAT,2467.565,2459.5083,2409.2551,right,1,left,left,not_eat,not_eat,avoid,pos,avoid-pos,1,1,762.1000000000931
sub-059,94,0,FALSE,left,avoid,pos,meat27_crop.jpg,2,10,TRUE,93,1,2470.2334,59,DON'T EAT                                    EAT,2469.5835,2459.5083,2409.2551,right,1,left,left,not_eat,not_eat,avoid,pos,avoid-pos,1,1,649.8999999999069
sub-059,95,0,FALSE,left,avoid,pos,meat30_crop.jpg,2,10,TRUE,94,1,2472.3298,59,DON'T EAT                                    EAT,2471.6018,2459.5083,2409.2551,right,1,left,left,not_eat,not_eat,avoid,pos,avoid-pos,1,1,728
sub-059,96,0,FALSE,left,avoid,pos,meat38_crop.jpg,2,10,TRUE,95,1,2474.2852,59,DON'T EAT                                    EAT,2473.62,2459.5083,2409.2551,right,1,left,left,not_eat,not_eat,avoid,pos,avoid-pos,1,1,665.1999999997206
sub-059,97,0,FALSE,left,avoid,pos,meat29_crop.jpg,2,10,TRUE,96,1,2476.4854,59,DON'T EAT                                    EAT,2475.638,2459.5083,2409.2551,right,1,left,left,not_eat,not_eat,avoid,pos,avoid-pos,1,1,847.3999999999069
sub-059,98,0,FALSE,left,avoid,pos,meat31_crop.jpg,2,10,TRUE,97,1,2478.3345,59,DON'T EAT                                    EAT,2477.6567,2459.5083,2409.2551,right,1,left,left,not_eat,not_eat,avoid,pos,avoid-pos,1,1,677.7999999998137
sub-059,99,0,TRUE,left,approach,neg,insect32_crop.jpg,2,10,TRUE,98,2,2480.5305,59,DON'T EAT                                    EAT,2479.675,2459.5083,2409.2551,right,2,right,right,eat,eat,avoid,pos,avoid-pos,1,1,855.5
sub-059,100,0,TRUE,left,approach,pos,cake40_crop.jpg,2,10,TRUE,99,2,2482.3823,59,DON'T EAT                                    EAT,2481.6934,2459.5083,2409.2551,right,2,right,right,eat,eat,avoid,pos,avoid-pos,1,1,688.9000000003725
sub-059,101,2,TRUE,left,approach,neg,insect1_crop.jpg,2,11,TRUE,100,2,2501.7812,59,DON'T EAT                                    EAT,2500.926,2496.9058,2409.2551,right,2,right,right,eat,eat,avoid,pos,avoid-pos,1,1,855.1999999997206
sub-059,102,2,FALSE,left,avoid,pos,meat24_crop.jpg,2,11,TRUE,101,1,2503.8735,59,DON'T EAT                                    EAT,2502.9443,2496.9058,2409.2551,right,1,left,left,not_eat,not_eat,avoid,pos,avoid-pos,1,1,929.1999999997206
sub-059,103,2,FALSE,left,avoid,pos,meat5_crop.jpg,2,11,TRUE,102,1,2505.9907,59,DON'T EAT                                    EAT,2504.9624,2496.9058,2409.2551,right,1,left,left,not_eat,not_eat,avoid,pos,avoid-pos,1,1,1028.2999999998137
sub-059,104,2,FALSE,left,avoid,pos,meat23_crop.jpg,2,11,TRUE,103,1,2507.6992,59,DON'T EAT                                    EAT,2506.9812,2496.9058,2409.2551,right,1,left,left,not_eat,not_eat,avoid,pos,avoid-pos,1,1,718
sub-059,105,2,FALSE,left,avoid,pos,meat1_crop.jpg,2,11,TRUE,104,1,2510.773,59,DON'T EAT                                    EAT,2508.9995,2496.9058,2409.2551,right,1,left,left,not_eat,not_eat,avoid,pos,avoid-pos,1,1,1773.5
sub-059,106,2,TRUE,left,approach,pos,cake3_crop.jpg,2,11,TRUE,105,2,2512.0422,59,DON'T EAT                                    EAT,2511.0178,2496.9058,2409.2551,right,2,right,right,eat,eat,avoid,pos,avoid-pos,1,1,1024.3999999994412
sub-059,107,2,FALSE,left,avoid,pos,meat12_crop.jpg,2,11,TRUE,106,1,2514.2854,59,DON'T EAT                                    EAT,2513.0361,2496.9058,2409.2551,right,1,left,left,not_eat,not_eat,avoid,pos,avoid-pos,1,1,1249.300000000745
sub-059,108,2,FALSE,left,avoid,pos,meat16_crop.jpg,2,11,TRUE,107,1,2516.7832,59,DON'T EAT                                    EAT,2515.0544,2496.9058,2409.2551,right,1,left,left,not_eat,not_eat,avoid,pos,avoid-pos,1,1,1728.7999999998137
sub-059,109,2,FALSE,left,avoid,pos,meat37_crop.jpg,2,11,TRUE,108,1,2518.0652,59,DON'T EAT                                    EAT,2517.073,2496.9058,2409.2551,right,1,left,left,not_eat,not_eat,avoid,pos,avoid-pos,1,1,992.2000000001863
sub-059,110,2,FALSE,left,avoid,pos,meat40_crop.jpg,2,11,TRUE,109,1,2519.704,59,DON'T EAT                                    EAT,2519.091,2496.9058,2409.2551,right,1,left,left,not_eat,not_eat,avoid,pos,avoid-pos,1,1,613
sub-059,111,2,FALSE,right,avoid,pos,meat7_crop.jpg,2,12,TRUE,110,1,2539.4873,59,DON'T EAT                                    EAT,2538.674,2534.6538,2409.2551,right,1,left,left,not_eat,not_eat,avoid,pos,avoid-pos,1,1,813.2999999998137
sub-059,112,2,FALSE,right,avoid,pos,meat14_crop.jpg,2,12,TRUE,111,1,2541.8467,59,DON'T EAT                                    EAT,2540.6924,2534.6538,2409.2551,right,1,left,left,not_eat,not_eat,avoid,pos,avoid-pos,1,1,1154.3000000002794
sub-059,113,2,FALSE,right,avoid,pos,meat40_crop.jpg,2,12,TRUE,112,1,2543.4324,59,DON'T EAT                                    EAT,2542.711,2534.6538,2409.2551,right,1,left,left,not_eat,not_eat,avoid,pos,avoid-pos,1,1,721.4000000003725
sub-059,114,2,FALSE,right,avoid,pos,meat26_crop.jpg,2,12,TRUE,113,1,2545.2698,59,DON'T EAT                                    EAT,2544.729,2534.6538,2409.2551,right,1,left,left,not_eat,not_eat,avoid,pos,avoid-pos,1,1,540.7999999998137
sub-059,115,2,TRUE,right,approach,pos,cake12_crop.jpg,2,12,TRUE,114,2,2547.698,59,DON'T EAT                                    EAT,2546.7476,2534.6538,2409.2551,right,2,right,right,eat,eat,avoid,pos,avoid-pos,1,1,950.3999999999069
sub-059,116,2,FALSE,right,avoid,pos,meat34_crop.jpg,2,12,TRUE,115,1,2549.7773,59,DON'T EAT                                    EAT,2548.7659,2534.6538,2409.2551,right,1,left,left,not_eat,not_eat,avoid,pos,avoid-pos,1,1,1011.4000000003725
sub-059,117,2,FALSE,right,avoid,pos,meat10_crop.jpg,2,12,TRUE,116,1,2551.4934,59,DON'T EAT                                    EAT,2550.784,2534.6538,2409.2551,right,1,left,left,not_eat,not_eat,avoid,pos,avoid-pos,1,1,709.3999999999069
sub-059,118,2,FALSE,right,avoid,pos,meat27_crop.jpg,2,12,TRUE,117,1,2553.4692,59,DON'T EAT                                    EAT,2552.8025,2534.6538,2409.2551,right,1,left,left,not_eat,not_eat,avoid,pos,avoid-pos,1,1,666.7000000001863
sub-059,119,2,TRUE,right,approach,neg,insect22_crop.jpg,2,12,TRUE,118,2,2555.7644,59,DON'T EAT                                    EAT,2554.821,2534.6538,2409.2551,right,2,right,right,eat,eat,avoid,pos,avoid-pos,1,1,943.3999999999069
sub-059,120,2,FALSE,right,avoid,pos,meat5_crop.jpg,2,12,TRUE,119,1,2557.7554,59,DON'T EAT                                    EAT,2556.839,2534.6538,2409.2551,right,1,left,left,not_eat,not_eat,avoid,pos,avoid-pos,1,1,916.3999999999069
sub-059,121,1,FALSE,right,approach,neg,insect4_crop.jpg,2,13,TRUE,120,2,2575.0344,59,DON'T EAT                                    EAT,2574.2202,2570.2002,2409.2551,right,2,right,right,eat,eat,approach,neg,approach-neg,1,1,814.1999999997206
sub-059,122,1,FALSE,right,approach,neg,insect37_crop.jpg,2,13,TRUE,121,2,2576.98,59,DON'T EAT                                    EAT,2576.2385,2570.2002,2409.2551,right,2,right,right,eat,eat,approach,neg,approach-neg,1,1,741.5
sub-059,123,1,FALSE,right,approach,neg,insect13_crop.jpg,2,13,TRUE,122,2,2578.9314,59,DON'T EAT                                    EAT,2578.2566,2570.2002,2409.2551,right,2,right,right,eat,eat,approach,neg,approach-neg,1,1,674.7999999998137
sub-059,124,1,FALSE,right,approach,neg,insect1_crop.jpg,2,13,TRUE,123,2,2580.9197,59,DON'T EAT                                    EAT,2580.2754,2570.2002,2409.2551,right,2,right,right,eat,eat,approach,neg,approach-neg,1,1,644.2999999998137
sub-059,125,1,FALSE,right,approach,neg,insect34_crop.jpg,2,13,TRUE,124,2,2583.0247,59,DON'T EAT                                    EAT,2582.2937,2570.2002,2409.2551,right,2,right,right,eat,eat,approach,neg,approach-neg,1,1,730.9999999995343
sub-059,126,1,FALSE,right,approach,neg,insect11_crop.jpg,2,13,TRUE,125,2,2585.1355,59,DON'T EAT                                    EAT,2584.312,2570.2002,2409.2551,right,2,right,right,eat,eat,approach,neg,approach-neg,1,1,823.5
sub-059,127,1,FALSE,right,approach,neg,insect39_crop.jpg,2,13,TRUE,126,2,2586.9834,59,DON'T EAT                                    EAT,2586.33,2570.2002,2409.2551,right,2,right,right,eat,eat,approach,neg,approach-neg,1,1,653.3999999999069
sub-059,128,1,FALSE,right,approach,neg,insect35_crop.jpg,2,13,TRUE,127,2,2589.1099,59,DON'T EAT                                    EAT,2588.3486,2570.2002,2409.2551,right,2,right,right,eat,eat,approach,neg,approach-neg,1,1,761.3000000002794
sub-059,129,1,TRUE,right,avoid,neg,fungus27_crop.jpg,2,13,TRUE,128,1,2591.2122,59,DON'T EAT                                    EAT,2590.367,2570.2002,2409.2551,right,1,left,left,not_eat,not_eat,approach,neg,approach-neg,1,1,845.1999999997206
sub-059,130,1,TRUE,right,avoid,pos,meat16_crop.jpg,2,13,TRUE,129,1,2593.3564,59,DON'T EAT                                    EAT,2592.3853,2570.2002,2409.2551,right,1,left,left,not_eat,not_eat,approach,neg,approach-neg,1,1,971.1000000000931
sub-059,131,1,FALSE,right,approach,pos,cake26_crop.jpg,2,14,TRUE,130,2,2610.8154,59,DON'T EAT                                    EAT,2610,2605.98,2409.2551,right,2,right,right,eat,eat,approach,pos,approach-pos,1,1,815.3999999999069
sub-059,132,1,FALSE,right,approach,pos,cake22_crop.jpg,2,14,TRUE,131,2,2612.7793,59,DON'T EAT                                    EAT,2612.0183,2605.98,2409.2551,right,2,right,right,eat,eat,approach,pos,approach-pos,1,1,761
sub-059,133,1,FALSE,right,approach,pos,cake37_crop.jpg,2,14,TRUE,132,2,2614.7234,59,DON'T EAT                                    EAT,2614.0366,2605.98,2409.2551,right,2,right,right,eat,eat,approach,pos,approach-pos,1,1,686.7999999998137
sub-059,134,1,FALSE,right,approach,pos,cake40_crop.jpg,2,14,TRUE,133,2,2616.6816,59,DON'T EAT                                    EAT,2616.055,2605.98,2409.2551,right,2,right,right,eat,eat,approach,pos,approach-pos,1,1,626.6000000000931
sub-059,135,1,FALSE,right,approach,pos,cake29_crop.jpg,2,14,TRUE,134,2,2619.0227,59,DON'T EAT                                    EAT,2618.0728,2605.98,2409.2551,right,2,right,right,eat,eat,approach,pos,approach-pos,1,1,949.9000000003725
sub-059,136,1,TRUE,right,avoid,neg,fungus8_crop.jpg,2,14,TRUE,135,1,2620.8943,59,DON'T EAT                                    EAT,2620.0916,2605.98,2409.2551,right,1,left,left,not_eat,not_eat,approach,pos,approach-pos,1,1,802.6999999997206
sub-059,137,1,FALSE,right,approach,pos,cake7_crop.jpg,2,14,TRUE,136,2,2622.922,59,DON'T EAT                                    EAT,2622.11,2605.98,2409.2551,right,2,right,right,eat,eat,approach,pos,approach-pos,1,1,812
sub-059,138,1,FALSE,right,approach,pos,cake14_crop.jpg,2,14,TRUE,137,2,2625.1133,59,DON'T EAT                                    EAT,2624.1284,2605.98,2409.2551,right,2,right,right,eat,eat,approach,pos,approach-pos,1,1,984.8999999999069
sub-059,139,1,TRUE,right,avoid,pos,meat36_crop.jpg,2,14,TRUE,138,1,2627.1914,59,DON'T EAT                                    EAT,2626.1467,2605.98,2409.2551,right,1,left,left,not_eat,not_eat,approach,pos,approach-pos,1,1,1044.700000000652
sub-059,140,1,FALSE,right,approach,pos,cake18_crop.jpg,2,14,TRUE,139,2,2629.1787,59,DON'T EAT                                    EAT,2628.165,2605.98,2409.2551,right,2,right,right,eat,eat,approach,pos,approach-pos,1,1,1013.6999999997206
sub-059,141,3,TRUE,left,avoid,neg,fungus22_crop.jpg,2,15,TRUE,140,1,2645.1973,59,DON'T EAT                                    EAT,2644.312,2640.292,2409.2551,right,1,left,left,not_eat,not_eat,approach,neg,approach-neg,1,1,885.2999999998137
sub-059,142,3,FALSE,left,approach,neg,insect33_crop.jpg,2,15,TRUE,141,2,2647.1523,59,DON'T EAT                                    EAT,2646.3303,2640.292,2409.2551,right,2,right,right,eat,eat,approach,neg,approach-neg,1,1,822
sub-059,143,3,FALSE,left,approach,neg,insect11_crop.jpg,2,15,TRUE,142,2,2648.9834,59,DON'T EAT                                    EAT,2648.3486,2640.292,2409.2551,right,2,right,right,eat,eat,approach,neg,approach-neg,1,1,634.8000000002794
sub-059,144,3,FALSE,left,approach,neg,insect15_crop.jpg,2,15,TRUE,143,2,2650.895,59,DON'T EAT                                    EAT,2650.367,2640.292,2409.2551,right,2,right,right,eat,eat,approach,neg,approach-neg,1,1,528
sub-059,145,3,TRUE,left,avoid,pos,meat10_crop.jpg,2,15,TRUE,144,1,2653.3645,59,DON'T EAT                                    EAT,2652.385,2640.292,2409.2551,right,1,left,left,not_eat,not_eat,approach,neg,approach-neg,1,1,979.5
sub-059,146,3,FALSE,left,approach,neg,insect4_crop.jpg,2,15,TRUE,145,2,2655.2793,59,DON'T EAT                                    EAT,2654.4036,2640.292,2409.2551,right,2,right,right,eat,eat,approach,neg,approach-neg,1,1,875.7000000001863
sub-059,147,3,FALSE,left,approach,neg,insect38_crop.jpg,2,15,TRUE,146,2,2657.142,59,DON'T EAT                                    EAT,2656.4219,2640.292,2409.2551,right,2,right,right,eat,eat,approach,neg,approach-neg,1,1,720.1000000000931
sub-059,148,3,FALSE,left,approach,neg,insect22_crop.jpg,2,15,TRUE,147,2,2659.0422,59,DON'T EAT                                    EAT,2658.44,2640.292,2409.2551,right,2,right,right,eat,eat,approach,neg,approach-neg,1,1,602.1999999997206
sub-059,149,3,FALSE,left,approach,neg,insect20_crop.jpg,2,15,TRUE,148,2,2661.1748,59,DON'T EAT                                    EAT,2660.4583,2640.292,2409.2551,right,2,right,right,eat,eat,approach,neg,approach-neg,1,1,716.5
sub-059,150,3,FALSE,left,approach,neg,insect29_crop.jpg,2,15,TRUE,149,2,2663.1199,59,DON'T EAT                                    EAT,2662.4768,2640.292,2409.2551,right,2,right,right,eat,eat,approach,neg,approach-neg,1,1,643.1000000005588
sub-059,151,2,FALSE,left,approach,pos,cake38_crop.jpg,2,16,TRUE,150,2,2680.4766,59,DON'T EAT                                    EAT,2679.591,2675.571,2409.2551,right,2,right,right,eat,eat,approach,pos,approach-pos,1,1,885.6000000000931
sub-059,152,2,FALSE,left,approach,pos,cake15_crop.jpg,2,16,TRUE,151,2,2682.265,59,DON'T EAT                                    EAT,2681.6094,2675.571,2409.2551,right,2,right,right,eat,eat,approach,pos,approach-pos,1,1,655.6000000000931
sub-059,153,2,TRUE,left,avoid,neg,fungus32_crop.jpg,2,16,TRUE,152,1,2684.5554,59,DON'T EAT                                    EAT,2683.628,2675.571,2409.2551,right,1,left,left,not_eat,not_eat,approach,pos,approach-pos,1,1,927.4000000003725
sub-059,154,2,FALSE,left,approach,pos,cake19_crop.jpg,2,16,TRUE,153,2,2686.6982,59,DON'T EAT                                    EAT,2685.646,2675.571,2409.2551,right,2,right,right,eat,eat,approach,pos,approach-pos,1,1,1052.1999999997206
sub-059,155,2,FALSE,left,approach,pos,cake26_crop.jpg,2,16,TRUE,154,2,2688.2664,59,DON'T EAT                                    EAT,2687.6646,2675.571,2409.2551,right,2,right,right,eat,eat,approach,pos,approach-pos,1,1,601.7999999998137
sub-059,156,2,FALSE,left,approach,pos,cake7_crop.jpg,2,16,TRUE,155,2,2690.2754,59,DON'T EAT                                    EAT,2689.6829,2675.571,2409.2551,right,2,right,right,eat,eat,approach,pos,approach-pos,1,1,592.5
sub-059,157,2,FALSE,left,approach,pos,cake27_crop.jpg,2,16,TRUE,156,2,2692.3257,59,DON'T EAT                                    EAT,2691.7012,2675.571,2409.2551,right,2,right,right,eat,eat,approach,pos,approach-pos,1,1,624.4999999995343
sub-059,158,2,FALSE,left,approach,pos,cake14_crop.jpg,2,16,TRUE,157,2,2694.3313,59,DON'T EAT                                    EAT,2693.7195,2675.571,2409.2551,right,2,right,right,eat,eat,approach,pos,approach-pos,1,1,611.7999999998137
sub-059,159,2,FALSE,left,approach,pos,cake20_crop.jpg,2,16,TRUE,158,2,2696.3557,59,DON'T EAT                                    EAT,2695.7378,2675.571,2409.2551,right,2,right,right,eat,eat,approach,pos,approach-pos,1,1,617.9000000003725
sub-059,160,2,TRUE,left,avoid,pos,meat26_crop.jpg,2,16,TRUE,159,1,2698.7893,59,DON'T EAT                                    EAT,2697.756,2675.571,2409.2551,right,1,left,left,not_eat,not_eat,approach,pos,approach-pos,1,1,1033.2999999998137
sub-059,161,0,FALSE,left,avoid,neg,fungus8_crop.jpg,3,17,TRUE,160,1,2792.2947,59,DON'T EAT                                    EAT,2791.3337,2787.3137,2774.3052,left,1,left,left,not_eat,not_eat,avoid,neg,avoid-neg,1,1,960.9999999995343
sub-059,162,0,FALSE,left,avoid,neg,fungus5_crop.jpg,3,17,TRUE,161,1,2794.1575,59,DON'T EAT                                    EAT,2793.3523,2787.3137,2774.3052,left,1,left,left,not_eat,not_eat,avoid,neg,avoid-neg,1,1,805.2000000001863
sub-059,163,0,FALSE,left,avoid,neg,fungus38_crop.jpg,3,17,TRUE,162,1,2796.1335,59,DON'T EAT                                    EAT,2795.3706,2787.3137,2774.3052,left,1,left,left,not_eat,not_eat,avoid,neg,avoid-neg,1,1,762.8999999999069
sub-059,164,0,TRUE,left,approach,pos,cake12_crop.jpg,3,17,TRUE,163,2,2798.246,59,DON'T EAT                                    EAT,2797.389,2787.3137,2774.3052,left,2,right,right,eat,eat,avoid,neg,avoid-neg,1,1,857
sub-059,165,0,FALSE,left,avoid,neg,fungus40_crop.jpg,3,17,TRUE,164,1,2800.342,59,DON'T EAT                                    EAT,2799.4072,2787.3137,2774.3052,left,1,left,left,not_eat,not_eat,avoid,neg,avoid-neg,1,1,934.7999999998137
sub-059,166,0,FALSE,left,avoid,neg,fungus20_crop.jpg,3,17,TRUE,165,1,2802.41,59,DON'T EAT                                    EAT,2801.4255,2787.3137,2774.3052,left,1,left,left,not_eat,not_eat,avoid,neg,avoid-neg,1,1,984.5
sub-059,167,0,FALSE,left,avoid,neg,fungus29_crop.jpg,3,17,TRUE,166,1,2804.1619,59,DON'T EAT                                    EAT,2803.4436,2787.3137,2774.3052,left,1,left,left,not_eat,not_eat,avoid,neg,avoid-neg,1,1,718.2999999998137
sub-059,168,0,FALSE,left,avoid,neg,fungus12_crop.jpg,3,17,TRUE,167,1,2806.2693,59,DON'T EAT                                    EAT,2805.4624,2787.3137,2774.3052,left,1,left,left,not_eat,not_eat,avoid,neg,avoid-neg,1,1,806.8999999999069
sub-059,169,0,FALSE,left,avoid,neg,fungus6_crop.jpg,3,17,TRUE,168,1,2808.1357,59,DON'T EAT                                    EAT,2807.4807,2787.3137,2774.3052,left,1,left,left,not_eat,not_eat,avoid,neg,avoid-neg,1,1,654.9999999995343
sub-059,170,0,TRUE,left,approach,neg,insect24_crop.jpg,3,17,TRUE,169,2,2810.3745,59,DON'T EAT                                    EAT,2809.499,2787.3137,2774.3052,left,2,right,right,eat,eat,avoid,neg,avoid-neg,1,1,875.5
sub-059,171,3,FALSE,right,avoid,neg,fungus2_crop.jpg,3,18,TRUE,170,1,2828.3064,59,DON'T EAT                                    EAT,2827.3972,2823.377,2774.3052,left,1,left,left,not_eat,not_eat,avoid,neg,avoid-neg,1,1,909.2000000001863
sub-059,172,3,FALSE,right,avoid,neg,fungus34_crop.jpg,3,18,TRUE,171,1,2830.669,59,DON'T EAT                                    EAT,2829.4155,2823.377,2774.3052,left,1,left,left,not_eat,not_eat,avoid,neg,avoid-neg,1,1,1253.5
sub-059,173,3,FALSE,right,avoid,neg,fungus1_crop.jpg,3,18,TRUE,172,1,2832.1335,59,DON'T EAT                                    EAT,2831.4336,2823.377,2774.3052,left,1,left,left,not_eat,not_eat,avoid,neg,avoid-neg,1,1,699.9000000003725
sub-059,174,3,TRUE,right,approach,neg,insect14_crop.jpg,3,18,TRUE,173,2,2834.2239,59,DON'T EAT                                    EAT,2833.4521,2823.377,2774.3052,left,2,right,right,eat,eat,avoid,neg,avoid-neg,1,1,771.7999999998137
sub-059,175,3,FALSE,right,avoid,neg,fungus39_crop.jpg,3,18,TRUE,174,1,2836.8662,59,DON'T EAT                                    EAT,2835.4705,2823.377,2774.3052,left,1,left,left,not_eat,not_eat,avoid,neg,avoid-neg,1,1,1395.6999999997206
sub-059,176,3,FALSE,right,avoid,neg,fungus32_crop.jpg,3,18,TRUE,175,1,2838.2935,59,DON'T EAT                                    EAT,2837.4888,2823.377,2774.3052,left,1,left,left,not_eat,not_eat,avoid,neg,avoid-neg,1,1,804.6999999997206
sub-059,177,3,FALSE,right,avoid,neg,fungus9_crop.jpg,3,18,TRUE,176,1,2840.458,59,DON'T EAT                                    EAT,2839.507,2823.377,2774.3052,left,1,left,left,not_eat,not_eat,avoid,neg,avoid-neg,1,1,951
sub-059,178,3,FALSE,right,avoid,neg,fungus22_crop.jpg,3,18,TRUE,177,1,2842.1924,59,DON'T EAT                                    EAT,2841.5256,2823.377,2774.3052,left,1,left,left,not_eat,not_eat,avoid,neg,avoid-neg,1,1,666.7999999998137
sub-059,179,3,FALSE,right,avoid,neg,fungus19_crop.jpg,3,18,TRUE,178,1,2844.2935,59,DON'T EAT                                    EAT,2843.5437,2823.377,2774.3052,left,1,left,left,not_eat,not_eat,avoid,neg,avoid-neg,1,1,749.7999999998137
sub-059,180,3,TRUE,right,approach,pos,cake21_crop.jpg,3,18,TRUE,179,2,2846.4026,59,DON'T EAT                                    EAT,2845.5625,2823.377,2774.3052,left,2,right,right,eat,eat,avoid,neg,avoid-neg,1,1,840.1000000000931
sub-059,181,3,TRUE,left,avoid,neg,fungus24_crop.jpg,3,19,TRUE,180,1,2865.246,59,DON'T EAT                                    EAT,2864.4446,2860.424,2774.3052,left,1,left,left,not_eat,not_eat,approach,pos,approach-pos,1,1,801.4000000003725
sub-059,182,3,FALSE,left,approach,pos,cake17_crop.jpg,3,19,TRUE,181,2,2867.2656,59,DON'T EAT                                    EAT,2866.463,2860.424,2774.3052,left,2,right,right,eat,eat,approach,pos,approach-pos,1,1,802.6000000000931
sub-059,183,3,FALSE,left,approach,pos,cake16_crop.jpg,3,19,TRUE,182,2,2869.2227,59,DON'T EAT                                    EAT,2868.4814,2860.424,2774.3052,left,2,right,right,eat,eat,approach,pos,approach-pos,1,1,741.2999999998137
sub-059,184,3,FALSE,left,approach,pos,cake13_crop.jpg,3,19,TRUE,183,2,2871.2925,59,DON'T EAT                                    EAT,2870.4995,2860.424,2774.3052,left,2,right,right,eat,eat,approach,pos,approach-pos,1,1,793
sub-059,185,3,FALSE,left,approach,pos,cake28_crop.jpg,3,19,TRUE,184,2,2873.2234,59,DON'T EAT                                    EAT,2872.5178,2860.424,2774.3052,left,2,right,right,eat,eat,approach,pos,approach-pos,1,1,705.5999999996275
sub-059,186,3,FALSE,left,approach,pos,cake4_crop.jpg,3,19,TRUE,185,2,2875.1592,59,DON'T EAT                                    EAT,2874.5361,2860.424,2774.3052,left,2,right,right,eat,eat,approach,pos,approach-pos,1,1,623.1000000005588
sub-059,187,3,FALSE,left,approach,pos,cake6_crop.jpg,3,19,TRUE,186,2,2877.3364,59,DON'T EAT                                    EAT,2876.5544,2860.424,2774.3052,left,2,right,right,eat,eat,approach,pos,approach-pos,1,1,782.0000000004657
sub-059,188,3,FALSE,left,approach,pos,cake30_crop.jpg,3,19,TRUE,187,2,2879.218,59,DON'T EAT                                    EAT,2878.573,2860.424,2774.3052,left,2,right,right,eat,eat,approach,pos,approach-pos,1,1,645
sub-059,189,3,TRUE,left,avoid,pos,meat36_crop.jpg,3,19,TRUE,188,1,2881.4355,59,DON'T EAT                                    EAT,2880.5913,2860.424,2774.3052,left,1,left,left,not_eat,not_eat,approach,pos,approach-pos,1,1,844.2000000001863
sub-059,190,3,FALSE,left,approach,pos,cake24_crop.jpg,3,19,TRUE,189,2,2883.4631,59,DON'T EAT                                    EAT,2882.6096,2860.424,2774.3052,left,2,right,right,eat,eat,approach,pos,approach-pos,1,1,853.5000000004657
sub-059,191,2,FALSE,right,approach,neg,insect6_crop.jpg,3,20,TRUE,190,2,2902.997,59,DON'T EAT                                    EAT,2902.226,2898.2058,2774.3052,left,2,right,right,eat,eat,approach,neg,approach-neg,1,1,771
sub-059,192,2,FALSE,right,approach,neg,insect26_crop.jpg,3,20,TRUE,191,2,2905.0576,59,DON'T EAT                                    EAT,2904.2441,2898.2058,2774.3052,left,2,right,right,eat,eat,approach,neg,approach-neg,1,1,813.5
sub-059,193,2,FALSE,right,approach,neg,insect36_crop.jpg,3,20,TRUE,192,2,2907.5183,59,DON'T EAT                                    EAT,2906.2625,2898.2058,2774.3052,left,2,right,right,eat,eat,approach,neg,approach-neg,1,1,1255.8000000002794
sub-059,194,2,TRUE,right,avoid,pos,meat22_crop.jpg,3,20,TRUE,193,1,2909.4421,59,DON'T EAT                                    EAT,2908.2812,2898.2058,2774.3052,left,1,left,left,not_eat,not_eat,approach,neg,approach-neg,1,1,1160.9000000003725
sub-059,195,2,FALSE,right,approach,neg,insect24_crop.jpg,3,20,TRUE,194,2,2911.3052,59,DON'T EAT                                    EAT,2910.2993,2898.2058,2774.3052,left,2,right,right,eat,eat,approach,neg,approach-neg,1,1,1005.8999999994412
sub-059,196,2,FALSE,right,approach,neg,insect28_crop.jpg,3,20,TRUE,195,2,2913.0654,59,DON'T EAT                                    EAT,2912.3176,2898.2058,2774.3052,left,2,right,right,eat,eat,approach,neg,approach-neg,1,1,747.8000000002794
sub-059,197,2,TRUE,right,avoid,neg,fungus16_crop.jpg,3,20,TRUE,196,1,2915.1174,59,DON'T EAT                                    EAT,2914.3362,2898.2058,2774.3052,left,1,left,left,not_eat,not_eat,approach,neg,approach-neg,1,1,781.1999999997206
sub-059,198,2,FALSE,right,approach,neg,insect12_crop.jpg,3,20,TRUE,197,2,2917.442,59,DON'T EAT                                    EAT,2916.3542,2898.2058,2774.3052,left,2,right,right,eat,eat,approach,neg,approach-neg,1,1,1087.7999999998137
sub-059,199,2,FALSE,right,approach,neg,insect30_crop.jpg,3,20,TRUE,198,2,2919.0586,59,DON'T EAT                                    EAT,2918.3726,2898.2058,2774.3052,left,2,right,right,eat,eat,approach,neg,approach-neg,1,1,685.9999999995343
sub-059,200,2,FALSE,right,approach,neg,insect5_crop.jpg,3,20,TRUE,199,2,2921.2407,59,DON'T EAT                                    EAT,2920.391,2898.2058,2774.3052,left,2,right,right,eat,eat,approach,neg,approach-neg,1,1,849.6999999997206
sub-059,201,2,FALSE,left,avoid,neg,fungus10_crop.jpg,3,21,TRUE,200,1,2939.2102,59,DON'T EAT                                    EAT,2938.3726,2934.3525,2774.3052,left,1,left,left,not_eat,not_eat,avoid,neg,avoid-neg,1,1,837.6000000000931
sub-059,202,2,FALSE,left,avoid,neg,fungus28_crop.jpg,3,21,TRUE,201,1,2941.191,59,DON'T EAT                                    EAT,2940.391,2934.3525,2774.3052,left,1,left,left,not_eat,not_eat,avoid,neg,avoid-neg,1,1,800
sub-059,203,2,FALSE,left,avoid,neg,fungus31_crop.jpg,3,21,TRUE,202,1,2943.1477,59,DON'T EAT                                    EAT,2942.4094,2934.3525,2774.3052,left,1,left,left,not_eat,not_eat,avoid,neg,avoid-neg,1,1,738.3000000002794
sub-059,204,2,FALSE,left,avoid,neg,fungus34_crop.jpg,3,21,TRUE,203,1,2945.3281,59,DON'T EAT                                    EAT,2944.4277,2934.3525,2774.3052,left,1,left,left,not_eat,not_eat,avoid,neg,avoid-neg,1,1,900.3999999999069
sub-059,205,2,FALSE,left,avoid,neg,fungus33_crop.jpg,3,21,TRUE,204,1,2947.1858,59,DON'T EAT                                    EAT,2946.446,2934.3525,2774.3052,left,1,left,left,not_eat,not_eat,avoid,neg,avoid-neg,1,1,739.8000000002794
sub-059,206,2,FALSE,left,avoid,neg,fungus18_crop.jpg,3,21,TRUE,205,1,2949.1392,59,DON'T EAT                                    EAT,2948.4644,2934.3525,2774.3052,left,1,left,left,not_eat,not_eat,avoid,neg,avoid-neg,1,1,674.8000000002794
sub-059,207,2,FALSE,left,avoid,neg,fungus2_crop.jpg,3,21,TRUE,206,1,2951.0874,59,DON'T EAT                                    EAT,2950.4824,2934.3525,2774.3052,left,1,left,left,not_eat,not_eat,avoid,neg,avoid-neg,1,1,605
sub-059,208,2,FALSE,left,avoid,neg,fungus21_crop.jpg,3,21,TRUE,207,1,2953.1355,59,DON'T EAT                                    EAT,2952.501,2934.3525,2774.3052,left,1,left,left,not_eat,not_eat,avoid,neg,avoid-neg,1,1,634.5
sub-059,209,2,TRUE,left,approach,pos,cake25_crop.jpg,3,21,TRUE,208,2,2955.3838,59,DON'T EAT                                    EAT,2954.5195,2934.3525,2774.3052,left,2,right,right,eat,eat,avoid,neg,avoid-neg,1,1,864.3000000002794
sub-059,210,2,TRUE,left,approach,neg,insect26_crop.jpg,3,21,TRUE,209,2,2957.9094,59,DON'T EAT                                    EAT,2956.5378,2934.3525,2774.3052,left,2,right,right,eat,eat,avoid,neg,avoid-neg,1,1,1371.5999999996275
sub-059,211,1,TRUE,left,approach,neg,insect19_crop.jpg,3,22,TRUE,210,2,2974.1614,59,DON'T EAT                                    EAT,2973.0847,2969.0647,2774.3052,left,2,right,right,eat,eat,avoid,pos,avoid-pos,1,1,1076.7000000001863
sub-059,212,1,FALSE,left,avoid,pos,meat17_crop.jpg,3,22,TRUE,211,1,2976.2163,59,DON'T EAT                                    EAT,2975.103,2969.0647,2774.3052,left,1,left,left,not_eat,not_eat,avoid,pos,avoid-pos,1,1,1113.2999999998137
sub-059,213,1,FALSE,left,avoid,pos,meat34_crop.jpg,3,22,TRUE,212,1,2978.1948,59,DON'T EAT                                    EAT,2977.1216,2969.0647,2774.3052,left,1,left,left,not_eat,not_eat,avoid,pos,avoid-pos,1,1,1073.2000000001863
sub-059,214,1,FALSE,left,avoid,pos,meat2_crop.jpg,3,22,TRUE,213,1,2980.0176,59,DON'T EAT                                    EAT,2979.14,2969.0647,2774.3052,left,1,left,left,not_eat,not_eat,avoid,pos,avoid-pos,1,1,877.6000000000931
sub-059,215,1,TRUE,left,approach,pos,cake36_crop.jpg,3,22,TRUE,214,2,2981.928,59,DON'T EAT                                    EAT,2981.1577,2969.0647,2774.3052,left,2,right,right,eat,eat,avoid,pos,avoid-pos,1,1,770.2999999998137
sub-059,216,1,FALSE,left,avoid,pos,meat22_crop.jpg,3,22,TRUE,215,1,2983.9773,59,DON'T EAT                                    EAT,2983.1765,2969.0647,2774.3052,left,1,left,left,not_eat,not_eat,avoid,pos,avoid-pos,1,1,800.7999999998137
sub-059,217,1,FALSE,left,avoid,pos,meat20_crop.jpg,3,22,TRUE,216,1,2986.2856,59,DON'T EAT                                    EAT,2985.1948,2969.0647,2774.3052,left,1,left,left,not_eat,not_eat,avoid,pos,avoid-pos,1,1,1090.7999999998137
sub-059,218,1,FALSE,left,avoid,pos,meat6_crop.jpg,3,22,TRUE,217,1,2988.6956,59,DON'T EAT                                    EAT,2987.2131,2969.0647,2774.3052,left,1,left,left,not_eat,not_eat,avoid,pos,avoid-pos,1,1,1482.5
sub-059,219,1,FALSE,left,avoid,pos,meat18_crop.jpg,3,22,TRUE,218,1,2989.9292,59,DON'T EAT                                    EAT,2989.2317,2969.0647,2774.3052,left,1,left,left,not_eat,not_eat,avoid,pos,avoid-pos,1,1,697.5000000004657
sub-059,220,1,FALSE,left,avoid,pos,meat25_crop.jpg,3,22,TRUE,219,1,2991.9775,59,DON'T EAT                                    EAT,2991.25,2969.0647,2774.3052,left,1,left,left,not_eat,not_eat,avoid,pos,avoid-pos,1,1,727.5
sub-059,221,0,FALSE,right,avoid,neg,fungus23_crop.jpg,3,23,TRUE,220,1,3011.8813,59,DON'T EAT                                    EAT,3011.0164,3006.9963,2774.3052,left,1,left,left,not_eat,not_eat,avoid,neg,avoid-neg,1,1,864.8999999999069
sub-059,222,0,FALSE,right,avoid,neg,fungus6_crop.jpg,3,23,TRUE,221,1,3013.689,59,DON'T EAT                                    EAT,3013.0347,3006.9963,2774.3052,left,1,left,left,not_eat,not_eat,avoid,neg,avoid-neg,1,1,654.2999999998137
sub-059,223,0,TRUE,right,approach,neg,insect17_crop.jpg,3,23,TRUE,222,2,3015.8137,59,DON'T EAT                                    EAT,3015.053,3006.9963,2774.3052,left,2,right,right,eat,eat,avoid,neg,avoid-neg,1,1,760.7000000001863
sub-059,224,0,FALSE,right,avoid,neg,fungus40_crop.jpg,3,23,TRUE,223,1,3017.8528,59,DON'T EAT                                    EAT,3017.0713,3006.9963,2774.3052,left,1,left,left,not_eat,not_eat,avoid,neg,avoid-neg,1,1,781.5
sub-059,225,0,FALSE,right,avoid,neg,fungus21_crop.jpg,3,23,TRUE,224,1,3019.7666,59,DON'T EAT                                    EAT,3019.0896,3006.9963,2774.3052,left,1,left,left,not_eat,not_eat,avoid,neg,avoid-neg,1,1,677.0000000004657
sub-059,226,0,FALSE,right,avoid,neg,fungus35_crop.jpg,3,23,TRUE,225,1,3021.7834,59,DON'T EAT                                    EAT,3021.108,3006.9963,2774.3052,left,1,left,left,not_eat,not_eat,avoid,neg,avoid-neg,1,1,675.3999999999069
sub-059,227,0,FALSE,right,avoid,neg,fungus13_crop.jpg,3,23,TRUE,226,1,3024.1106,59,DON'T EAT                                    EAT,3023.1265,3006.9963,2774.3052,left,1,left,left,not_eat,not_eat,avoid,neg,avoid-neg,1,1,984.1000000000931
sub-059,228,0,TRUE,right,approach,pos,cake34_crop.jpg,3,23,TRUE,227,2,3026.042,59,DON'T EAT                                    EAT,3025.1445,3006.9963,2774.3052,left,2,right,right,eat,eat,avoid,neg,avoid-neg,1,1,897.5
sub-059,229,0,FALSE,right,avoid,neg,fungus11_crop.jpg,3,23,TRUE,228,1,3027.9478,59,DON'T EAT                                    EAT,3027.163,3006.9963,2774.3052,left,1,left,left,not_eat,not_eat,avoid,neg,avoid-neg,1,1,784.7999999998137
sub-059,230,0,FALSE,right,avoid,neg,fungus24_crop.jpg,3,23,TRUE,229,1,3029.787,59,DON'T EAT                                    EAT,3029.1812,3006.9963,2774.3052,left,1,left,left,not_eat,not_eat,avoid,neg,avoid-neg,1,1,605.7999999998137
sub-059,231,2,FALSE,right,approach,pos,cake31_crop.jpg,3,24,TRUE,230,2,3048.155,59,DON'T EAT                                    EAT,3047.1296,3043.1094,2774.3052,left,2,right,right,eat,eat,approach,pos,approach-pos,1,1,1025.3999999999069
sub-059,232,2,FALSE,right,approach,pos,cake15_crop.jpg,3,24,TRUE,231,2,3049.887,59,DON'T EAT                                    EAT,3049.148,3043.1094,2774.3052,left,2,right,right,eat,eat,approach,pos,approach-pos,1,1,739
sub-059,233,2,FALSE,right,approach,pos,cake33_crop.jpg,3,24,TRUE,232,2,3051.8333,59,DON'T EAT                                    EAT,3051.1663,3043.1094,2774.3052,left,2,right,right,eat,eat,approach,pos,approach-pos,1,1,667
sub-059,234,2,FALSE,right,approach,pos,cake28_crop.jpg,3,24,TRUE,233,2,3053.733,59,DON'T EAT                                    EAT,3053.1846,3043.1094,2774.3052,left,2,right,right,eat,eat,approach,pos,approach-pos,1,1,548.3999999999069
sub-059,235,2,FALSE,right,approach,pos,cake6_crop.jpg,3,24,TRUE,234,2,3055.8997,59,DON'T EAT                                    EAT,3055.203,3043.1094,2774.3052,left,2,right,right,eat,eat,approach,pos,approach-pos,1,1,696.6999999997206
sub-059,236,2,TRUE,right,avoid,pos,meat39_crop.jpg,3,24,TRUE,235,1,3057.9812,59,DON'T EAT                                    EAT,3057.2214,3043.1094,2774.3052,left,1,left,left,not_eat,not_eat,approach,pos,approach-pos,1,1,759.8000000002794
sub-059,237,2,FALSE,right,approach,pos,cake35_crop.jpg,3,24,TRUE,236,2,3060.3613,59,DON'T EAT                                    EAT,3059.2397,3043.1094,2774.3052,left,2,right,right,eat,eat,approach,pos,approach-pos,1,1,1121.5999999996275
sub-059,238,2,FALSE,right,approach,pos,cake11_crop.jpg,3,24,TRUE,237,2,3062.0598,59,DON'T EAT                                    EAT,3061.258,3043.1094,2774.3052,left,2,right,right,eat,eat,approach,pos,approach-pos,1,1,801.7999999998137
sub-059,239,2,TRUE,right,avoid,neg,fungus25_crop.jpg,3,24,TRUE,238,1,3064.007,59,DON'T EAT                                    EAT,3063.2764,3043.1094,2774.3052,left,1,left,left,not_eat,not_eat,approach,pos,approach-pos,1,1,730.5999999996275
sub-059,240,2,FALSE,right,approach,pos,cake10_crop.jpg,3,24,TRUE,239,2,3067.2664,59,DON'T EAT                                    EAT,3065.2947,3043.1094,2774.3052,left,2,right,right,eat,eat,approach,pos,approach-pos,1,1,1971.7000000001863
sub-059,241,1,FALSE,right,avoid,neg,fungus28_crop.jpg,4,25,TRUE,240,1,3162.1587,59,DON'T EAT                                    EAT,3161.2742,3157.2544,3145.0103,right,1,left,left,not_eat,not_eat,avoid,neg,avoid-neg,1,1,884.5000000004657
sub-059,242,1,FALSE,right,avoid,neg,fungus17_crop.jpg,4,25,TRUE,241,1,3164.1287,59,DON'T EAT                                    EAT,3163.2927,3157.2544,3145.0103,right,1,left,left,not_eat,not_eat,avoid,neg,avoid-neg,1,1,836
sub-059,243,1,FALSE,right,avoid,neg,fungus31_crop.jpg,4,25,TRUE,242,1,3166.4263,59,DON'T EAT                                    EAT,3165.311,3157.2544,3145.0103,right,1,left,left,not_eat,not_eat,avoid,neg,avoid-neg,1,1,1115.3000000002794
sub-059,244,1,FALSE,right,avoid,neg,fungus5_crop.jpg,4,25,TRUE,243,1,3168.1133,59,DON'T EAT                                    EAT,3167.3296,3157.2544,3145.0103,right,1,left,left,not_eat,not_eat,avoid,neg,avoid-neg,1,1,783.6999999997206
sub-059,245,1,FALSE,right,avoid,neg,fungus33_crop.jpg,4,25,TRUE,244,1,3170.2896,59,DON'T EAT                                    EAT,3169.348,3157.2544,3145.0103,right,1,left,left,not_eat,not_eat,avoid,neg,avoid-neg,1,1,941.6000000000931
sub-059,246,1,FALSE,right,avoid,neg,fungus4_crop.jpg,4,25,TRUE,245,1,3172.1694,59,DON'T EAT                                    EAT,3171.3662,3157.2544,3145.0103,right,1,left,left,not_eat,not_eat,avoid,neg,avoid-neg,1,1,803.2000000006519
sub-059,247,1,TRUE,right,approach,pos,cake36_crop.jpg,4,25,TRUE,246,2,3174.2273,59,DON'T EAT                                    EAT,3173.3845,3157.2544,3145.0103,right,2,right,right,eat,eat,avoid,neg,avoid-neg,1,1,842.7999999998137
sub-059,248,1,TRUE,right,approach,neg,insect29_crop.jpg,4,25,TRUE,247,2,3176.2717,59,DON'T EAT                                    EAT,3175.4028,3157.2544,3145.0103,right,2,right,right,eat,eat,avoid,neg,avoid-neg,1,1,868.8999999999069
sub-059,249,1,FALSE,right,avoid,neg,fungus38_crop.jpg,4,25,TRUE,248,1,3178.1726,59,DON'T EAT                                    EAT,3177.4214,3157.2544,3145.0103,right,1,left,left,not_eat,not_eat,avoid,neg,avoid-neg,1,1,751.1999999997206
sub-059,250,1,FALSE,right,avoid,neg,fungus15_crop.jpg,4,25,TRUE,249,1,3180.1895,59,DON'T EAT                                    EAT,3179.4392,3157.2544,3145.0103,right,1,left,left,not_eat,not_eat,avoid,neg,avoid-neg,1,1,750.3000000002794
sub-059,251,3,FALSE,right,avoid,pos,meat17_crop.jpg,4,26,TRUE,250,1,3200.093,59,DON'T EAT                                    EAT,3199.256,3195.2358,3145.0103,right,1,left,left,not_eat,not_eat,avoid,pos,avoid-pos,1,1,837
sub-059,252,3,FALSE,right,avoid,pos,meat19_crop.jpg,4,26,TRUE,251,1,3202.403,59,DON'T EAT                                    EAT,3201.2742,3195.2358,3145.0103,right,1,left,left,not_eat,not_eat,avoid,pos,avoid-pos,1,1,1128.8000000002794
sub-059,253,3,FALSE,right,avoid,pos,meat9_crop.jpg,4,26,TRUE,252,1,3204.395,59,DON'T EAT                                    EAT,3203.2925,3195.2358,3145.0103,right,1,left,left,not_eat,not_eat,avoid,pos,avoid-pos,1,1,1102.5
sub-059,254,3,TRUE,right,approach,pos,cake13_crop.jpg,4,26,TRUE,253,2,3206.2852,59,DON'T EAT                                    EAT,3205.3105,3195.2358,3145.0103,right,2,right,right,eat,eat,avoid,pos,avoid-pos,1,1,974.6999999997206
sub-059,255,3,FALSE,right,avoid,pos,meat2_crop.jpg,4,26,TRUE,254,1,3208.393,59,DON'T EAT                                    EAT,3207.3289,3195.2358,3145.0103,right,1,left,left,not_eat,not_eat,avoid,pos,avoid-pos,1,1,1064.1000000000931
sub-059,256,3,FALSE,right,avoid,pos,meat31_crop.jpg,4,26,TRUE,255,1,3210.0793,59,DON'T EAT                                    EAT,3209.3472,3195.2358,3145.0103,right,1,left,left,not_eat,not_eat,avoid,pos,avoid-pos,1,1,732.0999999996275
sub-059,257,3,FALSE,right,avoid,pos,meat3_crop.jpg,4,26,TRUE,256,1,3212.1382,59,DON'T EAT                                    EAT,3211.3655,3195.2358,3145.0103,right,1,left,left,not_eat,not_eat,avoid,pos,avoid-pos,1,1,772.6999999997206
sub-059,258,3,FALSE,right,avoid,pos,meat6_crop.jpg,4,26,TRUE,257,1,3214.3013,59,DON'T EAT                                    EAT,3213.3838,3195.2358,3145.0103,right,1,left,left,not_eat,not_eat,avoid,pos,avoid-pos,1,1,917.5
sub-059,259,3,TRUE,right,approach,neg,insect40_crop.jpg,4,26,TRUE,258,2,3216.3662,59,DON'T EAT                                    EAT,3215.4023,3195.2358,3145.0103,right,2,right,right,eat,eat,avoid,pos,avoid-pos,1,1,963.8999999994412
sub-059,260,3,FALSE,right,avoid,pos,meat35_crop.jpg,4,26,TRUE,259,1,3218.3816,59,DON'T EAT                                    EAT,3217.4207,3195.2358,3145.0103,right,1,left,left,not_eat,not_eat,avoid,pos,avoid-pos,1,1,960.8999999999069
sub-059,261,0,TRUE,right,avoid,neg,fungus37_crop.jpg,4,27,TRUE,260,1,3235.14,59,DON'T EAT                                    EAT,3234.368,3230.3647,3145.0103,right,1,left,left,not_eat,not_eat,approach,pos,approach-pos,1,1,772
sub-059,262,0,FALSE,right,approach,pos,cake3_crop.jpg,4,27,TRUE,261,2,3237.3389,59,DON'T EAT                                    EAT,3236.3862,3230.3647,3145.0103,right,2,right,right,eat,eat,approach,pos,approach-pos,1,1,952.7000000006519
sub-059,263,0,FALSE,right,approach,pos,cake2_crop.jpg,4,27,TRUE,262,2,3239.4087,59,DON'T EAT                                    EAT,3238.4048,3230.3647,3145.0103,right,2,right,right,eat,eat,approach,pos,approach-pos,1,1,1003.9000000003725
sub-059,264,0,TRUE,right,avoid,pos,meat37_crop.jpg,4,27,TRUE,263,1,3241.408,59,DON'T EAT                                    EAT,3240.423,3230.3647,3145.0103,right,1,left,left,not_eat,not_eat,approach,pos,approach-pos,1,1,985
sub-059,265,0,FALSE,right,approach,pos,cake32_crop.jpg,4,27,TRUE,264,2,3243.3333,59,DON'T EAT                                    EAT,3242.4414,3230.3647,3145.0103,right,2,right,right,eat,eat,approach,pos,approach-pos,1,1,891.8999999994412
sub-059,266,0,FALSE,right,approach,pos,cake4_crop.jpg,4,27,TRUE,265,2,3245.2837,59,DON'T EAT                                    EAT,3244.4597,3230.3647,3145.0103,right,2,right,right,eat,eat,approach,pos,approach-pos,1,1,824.0000000004657
sub-059,267,0,FALSE,right,approach,pos,cake8_crop.jpg,4,27,TRUE,266,2,3247.2446,59,DON'T EAT                                    EAT,3246.478,3230.3647,3145.0103,right,2,right,right,eat,eat,approach,pos,approach-pos,1,1,766.6000000000931
sub-059,268,0,FALSE,right,approach,pos,cake1_crop.jpg,4,27,TRUE,267,2,3249.317,59,DON'T EAT                                    EAT,3248.4963,3230.3647,3145.0103,right,2,right,right,eat,eat,approach,pos,approach-pos,1,1,820.7000000001863
sub-059,269,0,FALSE,right,approach,pos,cake5_crop.jpg,4,27,TRUE,268,2,3251.168,59,DON'T EAT                                    EAT,3250.5146,3230.3647,3145.0103,right,2,right,right,eat,eat,approach,pos,approach-pos,1,1,653.3999999999069
sub-059,270,0,FALSE,right,approach,pos,cake25_crop.jpg,4,27,TRUE,269,2,3253.4011,59,DON'T EAT                                    EAT,3252.533,3230.3647,3145.0103,right,2,right,right,eat,eat,approach,pos,approach-pos,1,1,868.1000000000931
sub-059,271,1,FALSE,left,avoid,neg,fungus19_crop.jpg,4,28,TRUE,270,1,3272.4497,59,DON'T EAT                                    EAT,3271.649,3267.6455,3145.0103,right,1,left,left,not_eat,not_eat,avoid,neg,avoid-neg,1,1,800.7000000001863
sub-059,272,1,TRUE,left,approach,neg,insect36_crop.jpg,4,28,TRUE,271,2,3275.3013,59,DON'T EAT                                    EAT,3273.6672,3267.6455,3145.0103,right,2,right,right,eat,eat,avoid,neg,avoid-neg,1,1,1634.1000000005588
sub-059,273,1,TRUE,left,approach,pos,cake5_crop.jpg,4,28,TRUE,272,2,3277.0571,59,DON'T EAT                                    EAT,3275.6855,3267.6455,3145.0103,right,2,right,right,eat,eat,avoid,neg,avoid-neg,1,1,1371.6000000000931
sub-059,274,1,FALSE,left,avoid,neg,fungus14_crop.jpg,4,28,TRUE,273,1,3278.4932,59,DON'T EAT                                    EAT,3277.7039,3267.6455,3145.0103,right,1,left,left,not_eat,not_eat,avoid,neg,avoid-neg,1,1,789.2999999998137
sub-059,275,1,FALSE,left,avoid,neg,fungus39_crop.jpg,4,28,TRUE,274,1,3280.5671,59,DON'T EAT                                    EAT,3279.7224,3267.6455,3145.0103,right,1,left,left,not_eat,not_eat,avoid,neg,avoid-neg,1,1,844.7000000001863
sub-059,276,1,FALSE,left,avoid,neg,fungus17_crop.jpg,4,28,TRUE,275,1,3282.6833,59,DON'T EAT                                    EAT,3281.7405,3267.6455,3145.0103,right,1,left,left,not_eat,not_eat,avoid,neg,avoid-neg,1,1,942.8000000002794
sub-059,277,1,FALSE,left,avoid,neg,fungus26_crop.jpg,4,28,TRUE,276,1,3284.3433,59,DON'T EAT                                    EAT,3283.759,3267.6455,3145.0103,right,1,left,left,not_eat,not_eat,avoid,neg,avoid-neg,1,1,584.2999999998137
sub-059,278,1,FALSE,left,avoid,neg,fungus11_crop.jpg,4,28,TRUE,277,1,3286.49,59,DON'T EAT                                    EAT,3285.7773,3267.6455,3145.0103,right,1,left,left,not_eat,not_eat,avoid,neg,avoid-neg,1,1,712.6999999997206
sub-059,279,1,FALSE,left,avoid,neg,fungus16_crop.jpg,4,28,TRUE,278,1,3288.4915,59,DON'T EAT                                    EAT,3287.7957,3267.6455,3145.0103,right,1,left,left,not_eat,not_eat,avoid,neg,avoid-neg,1,1,695.7999999998137
sub-059,280,1,FALSE,left,avoid,neg,fungus27_crop.jpg,4,28,TRUE,279,1,3290.4658,59,DON'T EAT                                    EAT,3289.814,3267.6455,3145.0103,right,1,left,left,not_eat,not_eat,avoid,neg,avoid-neg,1,1,651.7999999998137
sub-059,281,1,FALSE,left,approach,neg,insect10_crop.jpg,4,29,TRUE,280,2,3308.0005,59,DON'T EAT                                    EAT,3307.245,3303.2417,3145.0103,right,2,right,right,eat,eat,approach,neg,approach-neg,1,1,755.5
sub-059,282,1,FALSE,left,approach,neg,insect27_crop.jpg,4,29,TRUE,281,2,3309.8416,59,DON'T EAT                                    EAT,3309.2634,3303.2417,3145.0103,right,2,right,right,eat,eat,approach,neg,approach-neg,1,1,578.2000000001863
sub-059,283,1,FALSE,left,approach,neg,insect40_crop.jpg,4,29,TRUE,282,2,3311.8743,59,DON'T EAT                                    EAT,3311.2817,3303.2417,3145.0103,right,2,right,right,eat,eat,approach,neg,approach-neg,1,1,592.5999999996275
sub-059,284,1,FALSE,left,approach,neg,insect21_crop.jpg,4,29,TRUE,283,2,3313.8367,59,DON'T EAT                                    EAT,3313.3003,3303.2417,3145.0103,right,2,right,right,eat,eat,approach,neg,approach-neg,1,1,536.3999999999069
sub-059,285,1,TRUE,left,avoid,pos,meat19_crop.jpg,4,29,TRUE,284,1,3316.0862,59,DON'T EAT                                    EAT,3315.3184,3303.2417,3145.0103,right,1,left,left,not_eat,not_eat,approach,neg,approach-neg,1,1,767.8000000002794
sub-059,286,1,FALSE,left,approach,neg,insect25_crop.jpg,4,29,TRUE,285,2,3318.3992,59,DON'T EAT                                    EAT,3317.337,3303.2417,3145.0103,right,2,right,right,eat,eat,approach,neg,approach-neg,1,1,1062.1999999997206
sub-059,287,1,FALSE,left,approach,neg,insect31_crop.jpg,4,29,TRUE,286,2,3319.965,59,DON'T EAT                                    EAT,3319.3552,3303.2417,3145.0103,right,2,right,right,eat,eat,approach,neg,approach-neg,1,1,609.7999999998137
sub-059,288,1,FALSE,left,approach,neg,insect2_crop.jpg,4,29,TRUE,287,2,3321.918,59,DON'T EAT                                    EAT,3321.3735,3303.2417,3145.0103,right,2,right,right,eat,eat,approach,neg,approach-neg,1,1,544.5
sub-059,289,1,TRUE,left,avoid,neg,fungus13_crop.jpg,4,29,TRUE,288,1,3324.1677,59,DON'T EAT                                    EAT,3323.3918,3303.2417,3145.0103,right,1,left,left,not_eat,not_eat,approach,neg,approach-neg,1,1,775.9000000003725
sub-059,290,1,FALSE,left,approach,neg,insect5_crop.jpg,4,29,TRUE,289,2,3326.117,59,DON'T EAT                                    EAT,3325.4102,3303.2417,3145.0103,right,2,right,right,eat,eat,approach,neg,approach-neg,1,1,706.8000000002794
sub-059,291,2,TRUE,right,approach,pos,cake39_crop.jpg,4,30,TRUE,290,2,3343.5635,59,DON'T EAT                                    EAT,3342.758,3338.7546,3145.0103,right,2,right,right,eat,eat,avoid,neg,avoid-neg,1,1,805.5
sub-059,292,2,FALSE,right,avoid,neg,fungus26_crop.jpg,4,30,TRUE,291,1,3345.5574,59,DON'T EAT                                    EAT,3344.7764,3338.7546,3145.0103,right,1,left,left,not_eat,not_eat,avoid,neg,avoid-neg,1,1,781
sub-059,293,2,FALSE,right,avoid,neg,fungus36_crop.jpg,4,30,TRUE,292,1,3347.5054,59,DON'T EAT                                    EAT,3346.7947,3338.7546,3145.0103,right,1,left,left,not_eat,not_eat,avoid,neg,avoid-neg,1,1,710.7000000001863
sub-059,294,2,FALSE,right,avoid,neg,fungus7_crop.jpg,4,30,TRUE,293,1,3349.5718,59,DON'T EAT                                    EAT,3348.813,3338.7546,3145.0103,right,1,left,left,not_eat,not_eat,avoid,neg,avoid-neg,1,1,758.8000000002794
sub-059,295,2,TRUE,right,approach,neg,insect38_crop.jpg,4,30,TRUE,294,2,3351.6177,59,DON'T EAT                                    EAT,3350.8313,3338.7546,3145.0103,right,2,right,right,eat,eat,avoid,neg,avoid-neg,1,1,786.3999999999069
sub-059,296,2,FALSE,right,avoid,neg,fungus10_crop.jpg,4,30,TRUE,295,1,3354.2373,59,DON'T EAT                                    EAT,3352.8496,3338.7546,3145.0103,right,1,left,left,not_eat,not_eat,avoid,neg,avoid-neg,1,1,1387.6999999997206
sub-059,297,2,FALSE,right,avoid,neg,fungus14_crop.jpg,4,30,TRUE,296,1,3356.0183,59,DON'T EAT                                    EAT,3354.868,3338.7546,3145.0103,right,1,left,left,not_eat,not_eat,avoid,neg,avoid-neg,1,1,1150.3000000002794
sub-059,298,2,FALSE,right,avoid,neg,fungus20_crop.jpg,4,30,TRUE,297,1,3357.8389,59,DON'T EAT                                    EAT,3356.8862,3338.7546,3145.0103,right,1,left,left,not_eat,not_eat,avoid,neg,avoid-neg,1,1,952.7000000006519
sub-059,299,2,FALSE,right,avoid,neg,fungus3_crop.jpg,4,30,TRUE,298,1,3359.9443,59,DON'T EAT                                    EAT,3358.9048,3338.7546,3145.0103,right,1,left,left,not_eat,not_eat,avoid,neg,avoid-neg,1,1,1039.5000000004657
sub-059,300,2,FALSE,right,avoid,neg,fungus12_crop.jpg,4,30,TRUE,299,1,3361.9658,59,DON'T EAT                                    EAT,3360.923,3338.7546,3145.0103,right,1,left,left,not_eat,not_eat,avoid,neg,avoid-neg,1,1,1042.7999999998137
sub-059,301,1,TRUE,right,approach,neg,insect7_crop.jpg,4,31,TRUE,300,2,3377.8457,59,DON'T EAT                                    EAT,3377.1865,3373.183,3145.0103,right,2,right,right,eat,eat,avoid,pos,avoid-pos,1,1,659.1999999997206
sub-059,302,1,FALSE,right,avoid,pos,meat21_crop.jpg,4,31,TRUE,301,1,3380.041,59,DON'T EAT                                    EAT,3379.205,3373.183,3145.0103,right,1,left,left,not_eat,not_eat,avoid,pos,avoid-pos,1,1,836
sub-059,303,1,FALSE,right,avoid,pos,meat1_crop.jpg,4,31,TRUE,302,1,3382.4277,59,DON'T EAT                                    EAT,3381.2231,3373.183,3145.0103,right,1,left,left,not_eat,not_eat,avoid,pos,avoid-pos,1,1,1204.6000000000931
sub-059,304,1,FALSE,right,avoid,pos,meat4_crop.jpg,4,31,TRUE,303,1,3384.208,59,DON'T EAT                                    EAT,3383.2417,3373.183,3145.0103,right,1,left,left,not_eat,not_eat,avoid,pos,avoid-pos,1,1,966.2999999998137
sub-059,305,1,FALSE,right,avoid,pos,meat28_crop.jpg,4,31,TRUE,304,1,3386.173,59,DON'T EAT                                    EAT,3385.26,3373.183,3145.0103,right,1,left,left,not_eat,not_eat,avoid,pos,avoid-pos,1,1,913
sub-059,306,1,FALSE,right,avoid,pos,meat33_crop.jpg,4,31,TRUE,305,1,3387.9846,59,DON'T EAT                                    EAT,3387.2783,3373.183,3145.0103,right,1,left,left,not_eat,not_eat,avoid,pos,avoid-pos,1,1,706.2999999998137
sub-059,307,1,FALSE,right,avoid,pos,meat29_crop.jpg,4,31,TRUE,306,1,3389.9402,59,DON'T EAT                                    EAT,3389.2966,3373.183,3145.0103,right,1,left,left,not_eat,not_eat,avoid,pos,avoid-pos,1,1,643.6000000000931
sub-059,308,1,FALSE,right,avoid,pos,meat15_crop.jpg,4,31,TRUE,307,1,3392.09,59,DON'T EAT                                    EAT,3391.315,3373.183,3145.0103,right,1,left,left,not_eat,not_eat,avoid,pos,avoid-pos,1,1,775
sub-059,309,1,TRUE,right,approach,pos,cake20_crop.jpg,4,31,TRUE,308,2,3394.1558,59,DON'T EAT                                    EAT,3393.3333,3373.183,3145.0103,right,2,right,right,eat,eat,avoid,pos,avoid-pos,1,1,822.5
sub-059,310,1,FALSE,right,avoid,pos,meat32_crop.jpg,4,31,TRUE,309,1,3396.144,59,DON'T EAT                                    EAT,3395.3516,3373.183,3145.0103,right,1,left,left,not_eat,not_eat,avoid,pos,avoid-pos,1,1,792.3999999999069
sub-059,311,3,FALSE,right,approach,neg,insect33_crop.jpg,4,32,TRUE,310,2,3415.2886,59,DON'T EAT                                    EAT,3414.5176,3410.5144,3145.0103,right,2,right,right,eat,eat,approach,neg,approach-neg,1,1,770.9999999995343
sub-059,312,3,FALSE,right,approach,neg,insect23_crop.jpg,4,32,TRUE,311,2,3417.3733,59,DON'T EAT                                    EAT,3416.536,3410.5144,3145.0103,right,2,right,right,eat,eat,approach,neg,approach-neg,1,1,837.3000000002794
sub-059,313,3,FALSE,right,approach,neg,insect25_crop.jpg,4,32,TRUE,312,2,3419.6216,59,DON'T EAT                                    EAT,3418.5542,3410.5144,3145.0103,right,2,right,right,eat,eat,approach,neg,approach-neg,1,1,1067.3999999999069
sub-059,314,3,FALSE,right,approach,neg,insect10_crop.jpg,4,32,TRUE,313,2,3421.215,59,DON'T EAT                                    EAT,3420.5725,3410.5144,3145.0103,right,2,right,right,eat,eat,approach,neg,approach-neg,1,1,642.5
sub-059,315,3,FALSE,right,approach,neg,insect15_crop.jpg,4,32,TRUE,314,2,3423.1702,59,DON'T EAT                                    EAT,3422.591,3410.5144,3145.0103,right,2,right,right,eat,eat,approach,neg,approach-neg,1,1,579.2000000001863
sub-059,316,3,TRUE,right,avoid,neg,fungus30_crop.jpg,4,32,TRUE,315,1,3425.5513,59,DON'T EAT                                    EAT,3424.6094,3410.5144,3145.0103,right,1,left,left,not_eat,not_eat,approach,neg,approach-neg,1,1,941.9000000003725
sub-059,317,3,FALSE,right,approach,neg,insect31_crop.jpg,4,32,TRUE,316,2,3427.5417,59,DON'T EAT                                    EAT,3426.6277,3410.5144,3145.0103,right,2,right,right,eat,eat,approach,neg,approach-neg,1,1,914
sub-059,318,3,FALSE,right,approach,neg,insect32_crop.jpg,4,32,TRUE,317,2,3429.2808,59,DON'T EAT                                    EAT,3428.646,3410.5144,3145.0103,right,2,right,right,eat,eat,approach,neg,approach-neg,1,1,634.7999999998137
sub-059,319,3,TRUE,right,avoid,pos,meat23_crop.jpg,4,32,TRUE,318,1,3431.3445,59,DON'T EAT                                    EAT,3430.6643,3410.5144,3145.0103,right,1,left,left,not_eat,not_eat,approach,neg,approach-neg,1,1,680.2000000001863
sub-059,320,3,FALSE,right,approach,neg,insect19_crop.jpg,4,32,TRUE,319,2,3433.45,59,DON'T EAT                                    EAT,3432.6826,3410.5144,3145.0103,right,2,right,right,eat,eat,approach,neg,approach-neg,1,1,767.3999999999069
