TrialNumber,n_block,catch,hand,mot,val,stim_name,run_number,num_block,ran,order,response,RT,Subject number,n_b,left_side_resp_label,trial_onset,blk_instr_onset,baseline_onset
1,0,False,left,avoid,pos,meat9_crop.jpg,1,1,1.0,0.0,2,1135.3698,39.0,1.0,DON'T EAT                                    EAT,1133.4797,1129.4597,1115.4906
2,0,False,left,avoid,pos,meat13_crop.jpg,1,1,1.0,1.0,1,1136.5948,39.0,1.0,DON'T EAT                                    EAT,1135.498,1129.4597,1115.4906
3,0,False,left,avoid,pos,meat19_crop.jpg,1,1,1.0,2.0,1,1138.3516,39.0,1.0,DON'T EAT                                    EAT,1137.5166,1129.4597,1115.4906
4,0,False,left,avoid,pos,meat20_crop.jpg,1,1,1.0,3.0,1,1140.4147,39.0,1.0,DON'T EAT                                    EAT,1139.5377,1129.4597,1115.4906
5,0,False,left,avoid,pos,meat31_crop.jpg,1,1,1.0,4.0,1,1142.2195,39.0,1.0,DON'T EAT                                    EAT,1141.5554,1129.4597,1115.4906
6,0,False,left,avoid,pos,meat16_crop.jpg,1,1,1.0,5.0,1,1144.5483,39.0,1.0,DON'T EAT                                    EAT,1143.5714,1129.4597,1115.4906
7,0,True,left,approach,neg,insect23_crop.jpg,1,1,1.0,6.0,2,1146.5084,39.0,1.0,DON'T EAT                                    EAT,1145.5896,1129.4597,1115.4906
8,0,False,left,avoid,pos,meat24_crop.jpg,1,1,1.0,7.0,1,1148.5483,39.0,1.0,DON'T EAT                                    EAT,1147.6082,1129.4597,1115.4906
9,0,False,left,avoid,pos,meat29_crop.jpg,1,1,1.0,8.0,1,1150.5787,39.0,1.0,DON'T EAT                                    EAT,1149.6266,1129.4597,1115.4906
10,0,True,left,approach,pos,cake19_crop.jpg,1,1,1.0,9.0,2,1152.7411,39.0,1.0,DON'T EAT                                    EAT,1151.6445,1129.4597,1115.4906
11,0,False,left,approach,neg,insect32_crop.jpg,1,2,1.0,10.0,2,1172.0826,39.0,2.0,DON'T EAT                                    EAT,1171.1111,1167.0907,1115.4906
12,0,False,left,approach,neg,insect40_crop.jpg,1,2,1.0,11.0,2,1174.0986,39.0,2.0,DON'T EAT                                    EAT,1173.1294,1167.0907,1115.4906
13,0,False,left,approach,neg,insect3_crop.jpg,1,2,1.0,12.0,2,1176.1078,39.0,2.0,DON'T EAT                                    EAT,1175.1477,1167.0907,1115.4906
14,0,False,left,approach,neg,insect10_crop.jpg,1,2,1.0,13.0,2,1178.348,39.0,2.0,DON'T EAT                                    EAT,1177.1661,1167.0907,1115.4906
15,0,False,left,approach,neg,insect38_crop.jpg,1,2,1.0,14.0,2,1180.1823,39.0,2.0,DON'T EAT                                    EAT,1179.1843,1167.0907,1115.4906
16,0,True,left,avoid,neg,fungus37_crop.jpg,1,2,1.0,15.0,1,1182.5101,39.0,2.0,DON'T EAT                                    EAT,1181.2026,1167.0907,1115.4906
17,0,False,left,approach,neg,insect12_crop.jpg,1,2,1.0,16.0,2,1184.1144,39.0,2.0,DON'T EAT                                    EAT,1183.2211,1167.0907,1115.4906
18,0,True,left,avoid,pos,meat12_crop.jpg,1,2,1.0,17.0,1,1186.1483,39.0,2.0,DON'T EAT                                    EAT,1185.2394,1167.0907,1115.4906
19,0,False,left,approach,neg,insect21_crop.jpg,1,2,1.0,18.0,2,1188.2295,39.0,2.0,DON'T EAT                                    EAT,1187.2576,1167.0907,1115.4906
20,0,False,left,approach,neg,insect30_crop.jpg,1,2,1.0,19.0,2,1189.9938,39.0,2.0,DON'T EAT                                    EAT,1189.2762,1167.0907,1115.4906
21,1,False,left,avoid,neg,fungus22_crop.jpg,1,3,1.0,20.0,1,1209.1434,39.0,3.0,DON'T EAT                                    EAT,1208.1418,1204.1217,1115.4906
22,1,False,left,avoid,neg,fungus23_crop.jpg,1,3,1.0,21.0,1,1211.2648,39.0,3.0,DON'T EAT                                    EAT,1210.1603,1204.1217,1115.4906
23,1,False,left,avoid,neg,fungus4_crop.jpg,1,3,1.0,22.0,1,1213.2992,39.0,3.0,DON'T EAT                                    EAT,1212.1785,1204.1217,1115.4906
24,1,False,left,avoid,neg,fungus19_crop.jpg,1,3,1.0,23.0,1,1215.0164,39.0,3.0,DON'T EAT                                    EAT,1214.1963,1204.1217,1115.4906
25,1,False,left,avoid,neg,fungus30_crop.jpg,1,3,1.0,24.0,1,1217.0985,39.0,3.0,DON'T EAT                                    EAT,1216.2147,1204.1217,1115.4906
26,1,True,left,approach,pos,cake11_crop.jpg,1,3,1.0,25.0,2,1219.373,39.0,3.0,DON'T EAT                                    EAT,1218.2332,1204.1217,1115.4906
27,1,False,left,avoid,neg,fungus10_crop.jpg,1,3,1.0,26.0,1,1221.2682,39.0,3.0,DON'T EAT                                    EAT,1220.2518,1204.1217,1115.4906
28,1,True,left,approach,neg,insect19_crop.jpg,1,3,1.0,27.0,2,1223.2722,39.0,3.0,DON'T EAT                                    EAT,1222.2701,1204.1217,1115.4906
29,1,False,left,avoid,neg,fungus34_crop.jpg,1,3,1.0,28.0,1,1225.2574,39.0,3.0,DON'T EAT                                    EAT,1224.2887,1204.1217,1115.4906
30,1,False,left,avoid,neg,fungus11_crop.jpg,1,3,1.0,29.0,1,1227.4861,39.0,3.0,DON'T EAT                                    EAT,1226.307,1204.1217,1115.4906
31,2,True,right,approach,pos,cake37_crop.jpg,1,4,1.0,30.0,2,1245.6588,39.0,4.0,DON'T EAT                                    EAT,1244.6055,1240.5853,1115.4906
32,2,False,right,avoid,neg,fungus11_crop.jpg,1,4,1.0,31.0,1,1247.807,39.0,4.0,DON'T EAT                                    EAT,1246.6238,1240.5853,1115.4906
33,2,False,right,avoid,neg,fungus31_crop.jpg,1,4,1.0,32.0,1,1249.8223,39.0,4.0,DON'T EAT                                    EAT,1248.6421,1240.5853,1115.4906
34,2,False,right,avoid,neg,fungus35_crop.jpg,1,4,1.0,33.0,1,1251.587,39.0,4.0,DON'T EAT                                    EAT,1250.6604,1240.5853,1115.4906
35,2,False,right,avoid,neg,fungus14_crop.jpg,1,4,1.0,34.0,1,1253.6998,39.0,4.0,DON'T EAT                                    EAT,1252.6782,1240.5853,1115.4906
36,2,False,right,avoid,neg,fungus17_crop.jpg,1,4,1.0,35.0,1,1256.0753,39.0,4.0,DON'T EAT                                    EAT,1254.6971,1240.5853,1115.4906
37,2,False,right,avoid,neg,fungus34_crop.jpg,1,4,1.0,36.0,1,1257.8964,39.0,4.0,DON'T EAT                                    EAT,1256.7156,1240.5853,1115.4906
38,2,True,right,approach,neg,insect9_crop.jpg,1,4,1.0,37.0,2,1259.9493,39.0,4.0,DON'T EAT                                    EAT,1258.7339,1240.5853,1115.4906
39,2,False,right,avoid,neg,fungus16_crop.jpg,1,4,1.0,38.0,1,1261.9932,39.0,4.0,DON'T EAT                                    EAT,1260.7518,1240.5853,1115.4906
40,2,False,right,avoid,neg,fungus26_crop.jpg,1,4,1.0,39.0,1,1263.7714,39.0,4.0,DON'T EAT                                    EAT,1262.7701,1240.5853,1115.4906
41,3,False,left,avoid,pos,meat3_crop.jpg,1,5,1.0,40.0,1,1282.453,39.0,5.0,DON'T EAT                                    EAT,1281.1355,1277.1157,1115.4906
42,3,True,left,approach,neg,insect9_crop.jpg,1,5,1.0,41.0,2,1284.5383,39.0,5.0,DON'T EAT                                    EAT,1283.1537,1277.1157,1115.4906
43,3,False,left,avoid,pos,meat36_crop.jpg,1,5,1.0,42.0,1,1286.1432,39.0,5.0,DON'T EAT                                    EAT,1285.1722,1277.1157,1115.4906
44,3,False,left,avoid,pos,meat33_crop.jpg,1,5,1.0,43.0,1,1288.5662,39.0,5.0,DON'T EAT                                    EAT,1287.1906,1277.1157,1115.4906
45,3,True,left,approach,pos,cake24_crop.jpg,1,5,1.0,44.0,2,1290.8042,39.0,5.0,DON'T EAT                                    EAT,1289.2091,1277.1157,1115.4906
46,3,False,left,avoid,pos,meat25_crop.jpg,1,5,1.0,45.0,1,1292.4279,39.0,5.0,DON'T EAT                                    EAT,1291.2273,1277.1157,1115.4906
47,3,False,left,avoid,pos,meat39_crop.jpg,1,5,1.0,46.0,1,1294.5426,39.0,5.0,DON'T EAT                                    EAT,1293.2458,1277.1157,1115.4906
48,3,False,left,avoid,pos,meat30_crop.jpg,1,5,1.0,47.0,1,1296.6714,39.0,5.0,DON'T EAT                                    EAT,1295.2642,1277.1157,1115.4906
49,3,False,left,avoid,pos,meat26_crop.jpg,1,5,1.0,48.0,1,1298.0598,39.0,5.0,DON'T EAT                                    EAT,1297.2821,1277.1157,1115.4906
50,3,False,left,avoid,pos,meat35_crop.jpg,1,5,1.0,49.0,1,1300.2098,39.0,5.0,DON'T EAT                                    EAT,1299.3009,1277.1157,1115.4906
51,3,False,left,approach,neg,insect20_crop.jpg,1,6,1.0,50.0,2,1320.3132,39.0,6.0,DON'T EAT                                    EAT,1318.7504,1314.7301,1115.4906
52,3,True,left,avoid,neg,fungus14_crop.jpg,1,6,1.0,51.0,1,1322.2617,39.0,6.0,DON'T EAT                                    EAT,1320.7684,1314.7301,1115.4906
53,3,False,left,approach,neg,insect37_crop.jpg,1,6,1.0,52.0,2,1324.328,39.0,6.0,DON'T EAT                                    EAT,1322.7865,1314.7301,1115.4906
54,3,False,left,approach,neg,insect28_crop.jpg,1,6,1.0,53.0,2,1325.942,39.0,6.0,DON'T EAT                                    EAT,1324.8054,1314.7301,1115.4906
55,3,False,left,approach,neg,insect17_crop.jpg,1,6,1.0,54.0,2,1327.6079,39.0,6.0,DON'T EAT                                    EAT,1326.8237,1314.7301,1115.4906
56,3,False,left,approach,neg,insect35_crop.jpg,1,6,1.0,55.0,2,1329.7076,39.0,6.0,DON'T EAT                                    EAT,1328.8422,1314.7301,1115.4906
57,3,False,left,approach,neg,insect11_crop.jpg,1,6,1.0,56.0,2,1331.7388,39.0,6.0,DON'T EAT                                    EAT,1330.8605,1314.7301,1115.4906
58,3,False,left,approach,neg,insect31_crop.jpg,1,6,1.0,57.0,2,1333.5116,39.0,6.0,DON'T EAT                                    EAT,1332.8784,1314.7301,1115.4906
59,3,False,left,approach,neg,insect16_crop.jpg,1,6,1.0,58.0,2,1335.6996,39.0,6.0,DON'T EAT                                    EAT,1334.8969,1314.7301,1115.4906
60,3,True,left,avoid,pos,meat32_crop.jpg,1,6,1.0,59.0,1,1337.9102,39.0,6.0,DON'T EAT                                    EAT,1336.9155,1314.7301,1115.4906
61,0,False,right,approach,pos,cake4_crop.jpg,1,7,1.0,60.0,2,1355.319,39.0,7.0,DON'T EAT                                    EAT,1353.629,1349.609,1115.4906
62,0,False,right,approach,pos,cake28_crop.jpg,1,7,1.0,61.0,2,1356.3638,39.0,7.0,DON'T EAT                                    EAT,1355.6477,1349.609,1115.4906
63,0,False,right,approach,pos,cake16_crop.jpg,1,7,1.0,62.0,2,1358.602,39.0,7.0,DON'T EAT                                    EAT,1357.666,1349.609,1115.4906
64,0,False,right,approach,pos,cake36_crop.jpg,1,7,1.0,63.0,2,1360.4036,39.0,7.0,DON'T EAT                                    EAT,1359.6843,1349.609,1115.4906
65,0,False,right,approach,pos,cake27_crop.jpg,1,7,1.0,64.0,2,1362.7178,39.0,7.0,DON'T EAT                                    EAT,1361.7026,1349.609,1115.4906
66,0,True,right,avoid,neg,fungus36_crop.jpg,1,7,1.0,65.0,1,1364.7677,39.0,7.0,DON'T EAT                                    EAT,1363.7211,1349.609,1115.4906
67,0,False,right,approach,pos,cake30_crop.jpg,1,7,1.0,66.0,2,1366.7422,39.0,7.0,DON'T EAT                                    EAT,1365.7394,1349.609,1115.4906
68,0,True,right,avoid,pos,meat35_crop.jpg,1,7,1.0,67.0,1,1368.7981,39.0,7.0,DON'T EAT                                    EAT,1367.7577,1349.609,1115.4906
69,0,False,right,approach,pos,cake13_crop.jpg,1,7,1.0,68.0,2,1370.6473,39.0,7.0,DON'T EAT                                    EAT,1369.7761,1349.609,1115.4906
70,0,False,right,approach,pos,cake7_crop.jpg,1,7,1.0,69.0,2,1372.5016,39.0,7.0,DON'T EAT                                    EAT,1371.7944,1349.609,1115.4906
71,3,False,right,avoid,pos,meat36_crop.jpg,1,8,1.0,70.0,1,1390.6038,39.0,8.0,DON'T EAT                                    EAT,1389.309,1385.2886,1115.4906
72,3,False,right,avoid,pos,meat29_crop.jpg,1,8,1.0,71.0,1,1392.2233,39.0,8.0,DON'T EAT                                    EAT,1391.327,1385.2886,1115.4906
73,3,False,right,avoid,pos,meat39_crop.jpg,1,8,1.0,72.0,1,1394.9917,39.0,8.0,DON'T EAT                                    EAT,1393.3457,1385.2886,1115.4906
74,3,False,right,avoid,pos,meat12_crop.jpg,1,8,1.0,73.0,1,1396.1323,39.0,8.0,DON'T EAT                                    EAT,1395.364,1385.2886,1115.4906
75,3,False,right,avoid,pos,meat3_crop.jpg,1,8,1.0,74.0,1,1398.3329,39.0,8.0,DON'T EAT                                    EAT,1397.3823,1385.2886,1115.4906
76,3,True,right,approach,neg,insect36_crop.jpg,1,8,1.0,75.0,2,1401.1859,39.0,8.0,DON'T EAT                                    EAT,1399.4008,1385.2886,1115.4906
77,3,False,right,avoid,pos,meat7_crop.jpg,1,8,1.0,76.0,1,1402.1582,39.0,8.0,DON'T EAT                                    EAT,1401.4192,1385.2886,1115.4906
78,3,False,right,avoid,pos,meat38_crop.jpg,1,8,1.0,77.0,1,1404.0992,39.0,8.0,DON'T EAT                                    EAT,1403.437,1385.2886,1115.4906
79,3,False,right,avoid,pos,meat13_crop.jpg,1,8,1.0,78.0,1,1406.1206,39.0,8.0,DON'T EAT                                    EAT,1405.4558,1385.2886,1115.4906
80,3,True,right,approach,pos,cake38_crop.jpg,1,8,1.0,79.0,2,1408.4003,39.0,8.0,DON'T EAT                                    EAT,1407.4741,1385.2886,1115.4906
81,0,True,right,approach,neg,insect34_crop.jpg,2,9,1.0,80.0,2,1506.2069,39.0,9.0,DON'T EAT                                    EAT,1504.9382,1500.9181,1488.3638
82,0,False,right,avoid,neg,fungus38_crop.jpg,2,9,1.0,81.0,1,1508.0643,39.0,9.0,DON'T EAT                                    EAT,1506.9569,1500.9181,1488.3638
83,0,True,right,approach,pos,cake2_crop.jpg,2,9,1.0,82.0,2,1510.0613,39.0,9.0,DON'T EAT                                    EAT,1508.9751,1500.9181,1488.3638
84,0,False,right,avoid,neg,fungus29_crop.jpg,2,9,1.0,83.0,1,1512.1139,39.0,9.0,DON'T EAT                                    EAT,1510.9934,1500.9181,1488.3638
85,0,False,right,avoid,neg,fungus6_crop.jpg,2,9,1.0,84.0,1,1513.9695,39.0,9.0,DON'T EAT                                    EAT,1513.0114,1500.9181,1488.3638
86,0,False,right,avoid,neg,fungus27_crop.jpg,2,9,1.0,85.0,1,1515.8118,39.0,9.0,DON'T EAT                                    EAT,1515.03,1500.9181,1488.3638
87,0,False,right,avoid,neg,fungus40_crop.jpg,2,9,1.0,86.0,1,1518.2095,39.0,9.0,DON'T EAT                                    EAT,1517.0485,1500.9181,1488.3638
88,0,False,right,avoid,neg,fungus12_crop.jpg,2,9,1.0,87.0,1,1520.0706,39.0,9.0,DON'T EAT                                    EAT,1519.0668,1500.9181,1488.3638
89,0,False,right,avoid,neg,fungus28_crop.jpg,2,9,1.0,88.0,1,1521.9193,39.0,9.0,DON'T EAT                                    EAT,1521.0852,1500.9181,1488.3638
90,0,False,right,avoid,neg,fungus9_crop.jpg,2,9,1.0,89.0,1,1523.8685,39.0,9.0,DON'T EAT                                    EAT,1523.1029,1500.9181,1488.3638
91,0,False,left,approach,pos,cake17_crop.jpg,2,10,1.0,90.0,2,1541.9259,39.0,10.0,DON'T EAT                                    EAT,1540.7515,1536.7313,1488.3638
92,0,False,left,approach,pos,cake10_crop.jpg,2,10,1.0,91.0,2,1544.1442,39.0,10.0,DON'T EAT                                    EAT,1542.7694,1536.7313,1488.3638
93,0,False,left,approach,pos,cake38_crop.jpg,2,10,1.0,92.0,2,1545.746,39.0,10.0,DON'T EAT                                    EAT,1544.7882,1536.7313,1488.3638
94,0,True,left,avoid,neg,fungus7_crop.jpg,2,10,1.0,93.0,1,1547.9247,39.0,10.0,DON'T EAT                                    EAT,1546.8065,1536.7313,1488.3638
95,0,False,left,approach,pos,cake3_crop.jpg,2,10,1.0,94.0,2,1549.7635,39.0,10.0,DON'T EAT                                    EAT,1548.825,1536.7313,1488.3638
96,0,False,left,approach,pos,cake26_crop.jpg,2,10,1.0,95.0,2,1551.6145,39.0,10.0,DON'T EAT                                    EAT,1550.8433,1536.7313,1488.3638
97,0,False,left,approach,pos,cake18_crop.jpg,2,10,1.0,96.0,2,1554.0557,39.0,10.0,DON'T EAT                                    EAT,1552.8611,1536.7313,1488.3638
98,0,True,left,avoid,pos,meat10_crop.jpg,2,10,1.0,97.0,1,1555.9188,39.0,10.0,DON'T EAT                                    EAT,1554.8795,1536.7313,1488.3638
99,0,False,left,approach,pos,cake20_crop.jpg,2,10,1.0,98.0,2,1557.836,39.0,10.0,DON'T EAT                                    EAT,1556.8977,1536.7313,1488.3638
100,0,False,left,approach,pos,cake31_crop.jpg,2,10,1.0,99.0,2,1559.7598,39.0,10.0,DON'T EAT                                    EAT,1558.9166,1536.7313,1488.3638
101,1,False,right,approach,neg,insect20_crop.jpg,2,11,1.0,100.0,2,1576.2433,39.0,11.0,DON'T EAT                                    EAT,1575.2302,1571.2098,1488.3638
102,1,True,right,avoid,pos,meat16_crop.jpg,2,11,1.0,101.0,1,1578.115,39.0,11.0,DON'T EAT                                    EAT,1577.2484,1571.2098,1488.3638
103,1,False,right,approach,neg,insect28_crop.jpg,2,11,1.0,102.0,2,1580.1869,39.0,11.0,DON'T EAT                                    EAT,1579.2668,1571.2098,1488.3638
104,1,False,right,approach,neg,insect23_crop.jpg,2,11,1.0,103.0,2,1581.9165,39.0,11.0,DON'T EAT                                    EAT,1581.2848,1571.2098,1488.3638
105,1,False,right,approach,neg,insect37_crop.jpg,2,11,1.0,104.0,2,1583.9075,39.0,11.0,DON'T EAT                                    EAT,1583.303,1571.2098,1488.3638
106,1,True,right,avoid,neg,fungus10_crop.jpg,2,11,1.0,105.0,1,1586.1831,39.0,11.0,DON'T EAT                                    EAT,1585.3219,1571.2098,1488.3638
107,1,False,right,approach,neg,insect11_crop.jpg,2,11,1.0,106.0,2,1588.2368,39.0,11.0,DON'T EAT                                    EAT,1587.3401,1571.2098,1488.3638
108,1,False,right,approach,neg,insect10_crop.jpg,2,11,1.0,107.0,2,1590.096,39.0,11.0,DON'T EAT                                    EAT,1589.3584,1571.2098,1488.3638
109,1,False,right,approach,neg,insect16_crop.jpg,2,11,1.0,108.0,2,1592.102,39.0,11.0,DON'T EAT                                    EAT,1591.3768,1571.2098,1488.3638
110,1,False,right,approach,neg,insect19_crop.jpg,2,11,1.0,109.0,2,1593.8059,39.0,11.0,DON'T EAT                                    EAT,1593.3948,1571.2098,1488.3638
111,1,False,right,approach,pos,cake3_crop.jpg,2,12,1.0,110.0,2,1611.9269,39.0,12.0,DON'T EAT                                    EAT,1610.6595,1606.6395,1488.3638
112,1,False,right,approach,pos,cake17_crop.jpg,2,12,1.0,111.0,2,1613.7517,39.0,12.0,DON'T EAT                                    EAT,1612.6779,1606.6395,1488.3638
113,1,False,right,approach,pos,cake29_crop.jpg,2,12,1.0,112.0,2,1615.5411,39.0,12.0,DON'T EAT                                    EAT,1614.6962,1606.6395,1488.3638
114,1,False,right,approach,pos,cake31_crop.jpg,2,12,1.0,113.0,2,1617.3706,39.0,12.0,DON'T EAT                                    EAT,1616.7148,1606.6395,1488.3638
115,1,True,right,avoid,neg,fungus32_crop.jpg,2,12,1.0,114.0,1,1619.8633,39.0,12.0,DON'T EAT                                    EAT,1618.7329,1606.6395,1488.3638
116,1,False,right,approach,pos,cake9_crop.jpg,2,12,1.0,115.0,2,1621.8082,39.0,12.0,DON'T EAT                                    EAT,1620.7512,1606.6395,1488.3638
117,1,True,right,avoid,pos,meat20_crop.jpg,2,12,1.0,116.0,1,1623.6125,39.0,12.0,DON'T EAT                                    EAT,1622.7695,1606.6395,1488.3638
118,1,False,right,approach,pos,cake19_crop.jpg,2,12,1.0,117.0,2,1625.7656,39.0,12.0,DON'T EAT                                    EAT,1624.7878,1606.6395,1488.3638
119,1,False,right,approach,pos,cake11_crop.jpg,2,12,1.0,118.0,2,1627.7341,39.0,12.0,DON'T EAT                                    EAT,1626.8063,1606.6395,1488.3638
120,1,False,right,approach,pos,cake1_crop.jpg,2,12,1.0,119.0,2,1629.5936,39.0,12.0,DON'T EAT                                    EAT,1628.825,1606.6395,1488.3638
121,1,False,left,approach,neg,insect36_crop.jpg,2,13,1.0,120.0,--,--,39.0,13.0,DON'T EAT                                    EAT,1647.2068,1643.186,1488.3638
122,1,False,left,approach,neg,insect4_crop.jpg,2,13,1.0,121.0,2,1649.3209,39.0,13.0,DON'T EAT                                    EAT,1649.225,1643.186,1488.3638
123,1,False,left,approach,neg,insect7_crop.jpg,2,13,1.0,122.0,2,1651.8663,39.0,13.0,DON'T EAT                                    EAT,1651.2428,1643.186,1488.3638
124,1,False,left,approach,neg,insect6_crop.jpg,2,13,1.0,123.0,2,1653.7401,39.0,13.0,DON'T EAT                                    EAT,1653.2612,1643.186,1488.3638
125,1,True,left,avoid,pos,meat21_crop.jpg,2,13,1.0,124.0,1,1656.1241,39.0,13.0,DON'T EAT                                    EAT,1655.2799,1643.186,1488.3638
126,1,False,left,approach,neg,insect2_crop.jpg,2,13,1.0,125.0,2,1658.1448,39.0,13.0,DON'T EAT                                    EAT,1657.2983,1643.186,1488.3638
127,1,False,left,approach,neg,insect14_crop.jpg,2,13,1.0,126.0,2,1659.8765,39.0,13.0,DON'T EAT                                    EAT,1659.3168,1643.186,1488.3638
128,1,True,left,avoid,neg,fungus9_crop.jpg,2,13,1.0,127.0,1,1662.179,39.0,13.0,DON'T EAT                                    EAT,1661.3351,1643.186,1488.3638
129,1,False,left,approach,neg,insect27_crop.jpg,2,13,1.0,128.0,2,1664.1823,39.0,13.0,DON'T EAT                                    EAT,1663.3528,1643.186,1488.3638
130,1,False,left,approach,neg,insect39_crop.jpg,2,13,1.0,129.0,2,1665.9078,39.0,13.0,DON'T EAT                                    EAT,1665.3716,1643.186,1488.3638
131,2,False,left,avoid,neg,fungus15_crop.jpg,2,14,1.0,130.0,1,1684.9268,39.0,14.0,DON'T EAT                                    EAT,1683.7533,1679.733,1488.3638
132,2,False,left,avoid,neg,fungus27_crop.jpg,2,14,1.0,131.0,1,1686.5195,39.0,14.0,DON'T EAT                                    EAT,1685.772,1679.733,1488.3638
133,2,False,left,avoid,neg,fungus6_crop.jpg,2,14,1.0,132.0,1,1688.5483,39.0,14.0,DON'T EAT                                    EAT,1687.7903,1679.733,1488.3638
134,2,True,left,approach,neg,insect24_crop.jpg,2,14,1.0,133.0,2,1690.7892,39.0,14.0,DON'T EAT                                    EAT,1689.8086,1679.733,1488.3638
135,2,True,left,approach,pos,cake28_crop.jpg,2,14,1.0,134.0,2,1692.9685,39.0,14.0,DON'T EAT                                    EAT,1691.827,1679.733,1488.3638
136,2,False,left,avoid,neg,fungus26_crop.jpg,2,14,1.0,135.0,1,1694.8477,39.0,14.0,DON'T EAT                                    EAT,1693.8453,1679.733,1488.3638
137,2,False,left,avoid,neg,fungus38_crop.jpg,2,14,1.0,136.0,1,1696.6642,39.0,14.0,DON'T EAT                                    EAT,1695.8636,1679.733,1488.3638
138,2,False,left,avoid,neg,fungus32_crop.jpg,2,14,1.0,137.0,1,1698.6088,39.0,14.0,DON'T EAT                                    EAT,1697.882,1679.733,1488.3638
139,2,False,left,avoid,neg,fungus36_crop.jpg,2,14,1.0,138.0,1,1700.6403,39.0,14.0,DON'T EAT                                    EAT,1699.9003,1679.733,1488.3638
140,2,False,left,avoid,neg,fungus1_crop.jpg,2,14,1.0,139.0,1,1702.7312,39.0,14.0,DON'T EAT                                    EAT,1701.9186,1679.733,1488.3638
141,2,True,left,approach,pos,cake8_crop.jpg,2,15,1.0,140.0,2,1722.0265,39.0,15.0,DON'T EAT                                    EAT,1720.9513,1716.9312,1488.3638
142,2,False,left,avoid,pos,meat15_crop.jpg,2,15,1.0,141.0,1,1723.847,39.0,15.0,DON'T EAT                                    EAT,1722.969,1716.9312,1488.3638
143,2,False,left,avoid,pos,meat5_crop.jpg,2,15,1.0,142.0,1,1725.7059,39.0,15.0,DON'T EAT                                    EAT,1724.9878,1716.9312,1488.3638
144,2,True,left,approach,neg,insect18_crop.jpg,2,15,1.0,143.0,2,1728.0264,39.0,15.0,DON'T EAT                                    EAT,1727.0063,1716.9312,1488.3638
145,2,False,left,avoid,pos,meat18_crop.jpg,2,15,1.0,144.0,1,1729.8259,39.0,15.0,DON'T EAT                                    EAT,1729.0245,1716.9312,1488.3638
146,2,False,left,avoid,pos,meat7_crop.jpg,2,15,1.0,145.0,1,1731.6672,39.0,15.0,DON'T EAT                                    EAT,1731.043,1716.9312,1488.3638
147,2,False,left,avoid,pos,meat34_crop.jpg,2,15,1.0,146.0,1,1733.8096,39.0,15.0,DON'T EAT                                    EAT,1733.0608,1716.9312,1488.3638
148,2,False,left,avoid,pos,meat40_crop.jpg,2,15,1.0,147.0,1,1735.7834,39.0,15.0,DON'T EAT                                    EAT,1735.0796,1716.9312,1488.3638
149,2,False,left,avoid,pos,meat1_crop.jpg,2,15,1.0,148.0,1,1738.457,39.0,15.0,DON'T EAT                                    EAT,1737.0978,1716.9312,1488.3638
150,2,False,left,avoid,pos,meat27_crop.jpg,2,15,1.0,149.0,1,1739.8645,39.0,15.0,DON'T EAT                                    EAT,1739.1163,1716.9312,1488.3638
151,3,False,left,approach,pos,cake9_crop.jpg,2,16,1.0,150.0,2,1756.9569,39.0,16.0,DON'T EAT                                    EAT,1755.9302,1751.9102,1488.3638
152,3,False,left,approach,pos,cake39_crop.jpg,2,16,1.0,151.0,2,1758.7288,39.0,16.0,DON'T EAT                                    EAT,1757.9485,1751.9102,1488.3638
153,3,False,left,approach,pos,cake1_crop.jpg,2,16,1.0,152.0,2,1760.602,39.0,16.0,DON'T EAT                                    EAT,1759.967,1751.9102,1488.3638
154,3,True,left,avoid,pos,meat4_crop.jpg,2,16,1.0,153.0,1,1763.25,39.0,16.0,DON'T EAT                                    EAT,1761.9854,1751.9102,1488.3638
155,3,False,left,approach,pos,cake12_crop.jpg,2,16,1.0,154.0,2,1765.0066,39.0,16.0,DON'T EAT                                    EAT,1764.0035,1751.9102,1488.3638
156,3,False,left,approach,pos,cake21_crop.jpg,2,16,1.0,155.0,2,1767.0679,39.0,16.0,DON'T EAT                                    EAT,1766.022,1751.9102,1488.3638
157,3,False,left,approach,pos,cake14_crop.jpg,2,16,1.0,156.0,2,1768.6097,39.0,16.0,DON'T EAT                                    EAT,1768.0403,1751.9102,1488.3638
158,3,True,left,avoid,neg,fungus29_crop.jpg,2,16,1.0,157.0,1,1770.8822,39.0,16.0,DON'T EAT                                    EAT,1770.0586,1751.9102,1488.3638
159,3,False,left,approach,pos,cake37_crop.jpg,2,16,1.0,158.0,2,1772.9279,39.0,16.0,DON'T EAT                                    EAT,1772.0764,1751.9102,1488.3638
160,3,False,left,approach,pos,cake2_crop.jpg,2,16,1.0,159.0,2,1774.6456,39.0,16.0,DON'T EAT                                    EAT,1774.0948,1751.9102,1488.3638
161,3,False,right,approach,neg,insect14_crop.jpg,3,17,1.0,160.0,2,1875.7694,39.0,17.0,DON'T EAT                                    EAT,1874.3787,1870.3586,1857.2839
162,3,True,right,avoid,neg,fungus30_crop.jpg,3,17,1.0,161.0,1,1877.6637,39.0,17.0,DON'T EAT                                    EAT,1876.397,1870.3586,1857.2839
163,3,False,right,approach,neg,insect21_crop.jpg,3,17,1.0,162.0,2,1879.4275,39.0,17.0,DON'T EAT                                    EAT,1878.4154,1870.3586,1857.2839
164,3,False,right,approach,neg,insect7_crop.jpg,3,17,1.0,163.0,2,1881.2603,39.0,17.0,DON'T EAT                                    EAT,1880.4337,1870.3586,1857.2839
165,3,False,right,approach,neg,insect24_crop.jpg,3,17,1.0,164.0,2,1883.1273,39.0,17.0,DON'T EAT                                    EAT,1882.4517,1870.3586,1857.2839
166,3,False,right,approach,neg,insect4_crop.jpg,3,17,1.0,165.0,2,1885.126,39.0,17.0,DON'T EAT                                    EAT,1884.4703,1870.3586,1857.2839
167,3,False,right,approach,neg,insect31_crop.jpg,3,17,1.0,166.0,2,1887.2917,39.0,17.0,DON'T EAT                                    EAT,1886.4888,1870.3586,1857.2839
168,3,False,right,approach,neg,insect30_crop.jpg,3,17,1.0,167.0,2,1889.5916,39.0,17.0,DON'T EAT                                    EAT,1888.5066,1870.3586,1857.2839
169,3,True,right,avoid,pos,meat24_crop.jpg,3,17,1.0,168.0,1,1891.3782,39.0,17.0,DON'T EAT                                    EAT,1890.5254,1870.3586,1857.2839
170,3,False,right,approach,neg,insect5_crop.jpg,3,17,1.0,169.0,2,1893.3602,39.0,17.0,DON'T EAT                                    EAT,1892.5438,1870.3586,1857.2839
171,2,False,right,avoid,pos,meat10_crop.jpg,3,18,1.0,170.0,1,1910.539,39.0,18.0,DON'T EAT                                    EAT,1909.4575,1905.4375,1857.2839
172,2,False,right,avoid,pos,meat37_crop.jpg,3,18,1.0,171.0,1,1912.2467,39.0,18.0,DON'T EAT                                    EAT,1911.4762,1905.4375,1857.2839
173,2,False,right,avoid,pos,meat5_crop.jpg,3,18,1.0,172.0,1,1914.0773,39.0,18.0,DON'T EAT                                    EAT,1913.494,1905.4375,1857.2839
174,2,False,right,avoid,pos,meat15_crop.jpg,3,18,1.0,173.0,1,1916.2855,39.0,18.0,DON'T EAT                                    EAT,1915.5128,1905.4375,1857.2839
175,2,False,right,avoid,pos,meat19_crop.jpg,3,18,1.0,174.0,1,1918.2285,39.0,18.0,DON'T EAT                                    EAT,1917.5311,1905.4375,1857.2839
176,2,False,right,avoid,pos,meat6_crop.jpg,3,18,1.0,175.0,1,1920.1945,39.0,18.0,DON'T EAT                                    EAT,1919.5494,1905.4375,1857.2839
177,2,True,right,approach,neg,insect2_crop.jpg,3,18,1.0,176.0,2,1922.7603,39.0,18.0,DON'T EAT                                    EAT,1921.5679,1905.4375,1857.2839
178,2,False,right,avoid,pos,meat9_crop.jpg,3,18,1.0,177.0,1,1924.6792,39.0,18.0,DON'T EAT                                    EAT,1923.5857,1905.4375,1857.2839
179,2,False,right,avoid,pos,meat22_crop.jpg,3,18,1.0,178.0,1,1926.2985,39.0,18.0,DON'T EAT                                    EAT,1925.6045,1905.4375,1857.2839
180,2,True,right,approach,pos,cake35_crop.jpg,3,18,1.0,179.0,2,1928.7732,39.0,18.0,DON'T EAT                                    EAT,1927.6229,1905.4375,1857.2839
181,2,False,left,approach,neg,insect22_crop.jpg,3,19,1.0,180.0,2,1945.2908,39.0,19.0,DON'T EAT                                    EAT,1943.8864,1939.8661,1857.2839
182,2,False,left,approach,neg,insect29_crop.jpg,3,19,1.0,181.0,2,1947.3396,39.0,19.0,DON'T EAT                                    EAT,1945.9048,1939.8661,1857.2839
183,2,True,left,avoid,neg,fungus35_crop.jpg,3,19,1.0,182.0,1,1949.2972,39.0,19.0,DON'T EAT                                    EAT,1947.9233,1939.8661,1857.2839
184,2,False,left,approach,neg,insect5_crop.jpg,3,19,1.0,183.0,2,1951.1392,39.0,19.0,DON'T EAT                                    EAT,1949.9414,1939.8661,1857.2839
185,2,True,left,avoid,pos,meat23_crop.jpg,3,19,1.0,184.0,1,1953.3057,39.0,19.0,DON'T EAT                                    EAT,1951.9597,1939.8661,1857.2839
186,2,False,left,approach,neg,insect15_crop.jpg,3,19,1.0,185.0,2,1955.123,39.0,19.0,DON'T EAT                                    EAT,1953.9775,1939.8661,1857.2839
187,2,False,left,approach,neg,insect8_crop.jpg,3,19,1.0,186.0,2,1956.756,39.0,19.0,DON'T EAT                                    EAT,1955.9965,1939.8661,1857.2839
188,2,False,left,approach,neg,insect25_crop.jpg,3,19,1.0,187.0,2,1958.5527,39.0,19.0,DON'T EAT                                    EAT,1958.015,1939.8661,1857.2839
189,2,False,left,approach,neg,insect1_crop.jpg,3,19,1.0,188.0,2,1960.5918,39.0,19.0,DON'T EAT                                    EAT,1960.0332,1939.8661,1857.2839
190,2,False,left,approach,neg,insect26_crop.jpg,3,19,1.0,189.0,2,1962.6522,39.0,19.0,DON'T EAT                                    EAT,1962.0515,1939.8661,1857.2839
191,1,False,right,avoid,neg,fungus4_crop.jpg,3,20,1.0,190.0,1,1982.087,39.0,20.0,DON'T EAT                                    EAT,1980.9005,1976.8804,1857.2839
192,1,False,right,avoid,neg,fungus20_crop.jpg,3,20,1.0,191.0,1,1984.3269,39.0,20.0,DON'T EAT                                    EAT,1982.9187,1976.8804,1857.2839
193,1,True,right,approach,pos,cake33_crop.jpg,3,20,1.0,192.0,2,1986.3937,39.0,20.0,DON'T EAT                                    EAT,1984.937,1976.8804,1857.2839
194,1,True,right,approach,neg,insect32_crop.jpg,3,20,1.0,193.0,2,1987.9445,39.0,20.0,DON'T EAT                                    EAT,1986.9556,1976.8804,1857.2839
195,1,False,right,avoid,neg,fungus23_crop.jpg,3,20,1.0,194.0,1,1990.0393,39.0,20.0,DON'T EAT                                    EAT,1988.9739,1976.8804,1857.2839
196,1,False,right,avoid,neg,fungus21_crop.jpg,3,20,1.0,195.0,1,1991.6593,39.0,20.0,DON'T EAT                                    EAT,1990.9922,1976.8804,1857.2839
197,1,False,right,avoid,neg,fungus2_crop.jpg,3,20,1.0,196.0,1,1993.8632,39.0,20.0,DON'T EAT                                    EAT,1993.0105,1976.8804,1857.2839
198,1,False,right,avoid,neg,fungus33_crop.jpg,3,20,1.0,197.0,1,1995.6193,39.0,20.0,DON'T EAT                                    EAT,1995.0288,1976.8804,1857.2839
199,1,False,right,avoid,neg,fungus13_crop.jpg,3,20,1.0,198.0,1,1997.9735,39.0,20.0,DON'T EAT                                    EAT,1997.0471,1976.8804,1857.2839
200,1,False,right,avoid,neg,fungus15_crop.jpg,3,20,1.0,199.0,1,1999.7681,39.0,20.0,DON'T EAT                                    EAT,1999.0656,1976.8804,1857.2839
201,1,False,right,avoid,pos,meat4_crop.jpg,3,21,1.0,200.0,1,2020.4039,39.0,21.0,DON'T EAT                                    EAT,2018.6819,2014.6613,1857.2839
202,1,False,right,avoid,pos,meat17_crop.jpg,3,21,1.0,201.0,1,2021.7584,39.0,21.0,DON'T EAT                                    EAT,2020.7009,2014.6613,1857.2839
203,1,False,right,avoid,pos,meat28_crop.jpg,3,21,1.0,202.0,1,2023.7239,39.0,21.0,DON'T EAT                                    EAT,2022.7184,2014.6613,1857.2839
204,1,False,right,avoid,pos,meat14_crop.jpg,3,21,1.0,203.0,1,2025.7937,39.0,21.0,DON'T EAT                                    EAT,2024.7369,2014.6613,1857.2839
205,1,True,right,approach,pos,cake22_crop.jpg,3,21,1.0,204.0,2,2027.8628,39.0,21.0,DON'T EAT                                    EAT,2026.7552,2014.6613,1857.2839
206,1,False,right,avoid,pos,meat21_crop.jpg,3,21,1.0,205.0,1,2029.4908,39.0,21.0,DON'T EAT                                    EAT,2028.7732,2014.6613,1857.2839
207,1,False,right,avoid,pos,meat26_crop.jpg,3,21,1.0,206.0,1,2031.8805,39.0,21.0,DON'T EAT                                    EAT,2030.7919,2014.6613,1857.2839
208,1,True,right,approach,neg,insect13_crop.jpg,3,21,1.0,207.0,2,2033.7921,39.0,21.0,DON'T EAT                                    EAT,2032.8103,2014.6613,1857.2839
209,1,False,right,avoid,pos,meat1_crop.jpg,3,21,1.0,208.0,1,2035.9766,39.0,21.0,DON'T EAT                                    EAT,2034.8285,2014.6613,1857.2839
210,1,False,right,avoid,pos,meat34_crop.jpg,3,21,1.0,209.0,1,2038.018,39.0,21.0,DON'T EAT                                    EAT,2036.847,2014.6613,1857.2839
211,3,False,right,approach,pos,cake12_crop.jpg,3,22,1.0,210.0,2,2056.438,39.0,22.0,DON'T EAT                                    EAT,2055.4458,2051.4255,1857.2839
212,3,False,right,approach,pos,cake8_crop.jpg,3,22,1.0,211.0,2,2058.1733,39.0,22.0,DON'T EAT                                    EAT,2057.464,2051.4255,1857.2839
213,3,False,right,approach,pos,cake14_crop.jpg,3,22,1.0,212.0,2,2060.1472,39.0,22.0,DON'T EAT                                    EAT,2059.4827,2051.4255,1857.2839
214,3,False,right,approach,pos,cake10_crop.jpg,3,22,1.0,213.0,2,2062.0623,39.0,22.0,DON'T EAT                                    EAT,2061.5005,2051.4255,1857.2839
215,3,False,right,approach,pos,cake24_crop.jpg,3,22,1.0,214.0,2,2064.127,39.0,22.0,DON'T EAT                                    EAT,2063.5186,2051.4255,1857.2839
216,3,False,right,approach,pos,cake23_crop.jpg,3,22,1.0,215.0,2,2066.2537,39.0,22.0,DON'T EAT                                    EAT,2065.537,2051.4255,1857.2839
217,3,False,right,approach,pos,cake25_crop.jpg,3,22,1.0,216.0,2,2068.1174,39.0,22.0,DON'T EAT                                    EAT,2067.556,2051.4255,1857.2839
218,3,False,right,approach,pos,cake40_crop.jpg,3,22,1.0,217.0,2,2070.1118,39.0,22.0,DON'T EAT                                    EAT,2069.5742,2051.4255,1857.2839
219,3,True,right,avoid,neg,fungus7_crop.jpg,3,22,1.0,218.0,1,2072.4785,39.0,22.0,DON'T EAT                                    EAT,2071.5925,2051.4255,1857.2839
220,3,True,right,avoid,pos,meat33_crop.jpg,3,22,1.0,219.0,1,2074.5745,39.0,22.0,DON'T EAT                                    EAT,2073.6104,2051.4255,1857.2839
221,2,False,right,approach,pos,cake32_crop.jpg,3,23,1.0,220.0,2,2092.7502,39.0,23.0,DON'T EAT                                    EAT,2091.4758,2087.4556,1857.2839
222,2,False,right,approach,pos,cake34_crop.jpg,3,23,1.0,221.0,2,2094.451,39.0,23.0,DON'T EAT                                    EAT,2093.4937,2087.4556,1857.2839
223,2,False,right,approach,pos,cake26_crop.jpg,3,23,1.0,222.0,2,2096.239,39.0,23.0,DON'T EAT                                    EAT,2095.5125,2087.4556,1857.2839
224,2,True,right,avoid,pos,meat8_crop.jpg,3,23,1.0,223.0,1,2098.404,39.0,23.0,DON'T EAT                                    EAT,2097.5308,2087.4556,1857.2839
225,2,False,right,approach,pos,cake39_crop.jpg,3,23,1.0,224.0,2,2100.6172,39.0,23.0,DON'T EAT                                    EAT,2099.549,2087.4556,1857.2839
226,2,False,right,approach,pos,cake21_crop.jpg,3,23,1.0,225.0,2,2102.6968,39.0,23.0,DON'T EAT                                    EAT,2101.5674,2087.4556,1857.2839
227,2,True,right,avoid,neg,fungus37_crop.jpg,3,23,1.0,226.0,1,2104.7087,39.0,23.0,DON'T EAT                                    EAT,2103.5852,2087.4556,1857.2839
228,2,False,right,approach,pos,cake20_crop.jpg,3,23,1.0,227.0,2,2106.5977,39.0,23.0,DON'T EAT                                    EAT,2105.6035,2087.4556,1857.2839
229,2,False,right,approach,pos,cake18_crop.jpg,3,23,1.0,228.0,2,2108.4836,39.0,23.0,DON'T EAT                                    EAT,2107.622,2087.4556,1857.2839
230,2,False,right,approach,pos,cake6_crop.jpg,3,23,1.0,229.0,2,2110.5369,39.0,23.0,DON'T EAT                                    EAT,2109.6409,2087.4556,1857.2839
231,1,True,left,approach,pos,cake40_crop.jpg,3,24,1.0,230.0,2,2129.6023,39.0,24.0,DON'T EAT                                    EAT,2127.906,2123.886,1857.2839
232,1,False,left,avoid,pos,meat14_crop.jpg,3,24,1.0,231.0,1,2130.82,39.0,24.0,DON'T EAT                                    EAT,2129.9243,2123.886,1857.2839
233,1,False,left,avoid,pos,meat37_crop.jpg,3,24,1.0,232.0,1,2132.7854,39.0,24.0,DON'T EAT                                    EAT,2131.9426,2123.886,1857.2839
234,1,False,left,avoid,pos,meat11_crop.jpg,3,24,1.0,233.0,1,2134.5928,39.0,24.0,DON'T EAT                                    EAT,2133.961,2123.886,1857.2839
235,1,False,left,avoid,pos,meat22_crop.jpg,3,24,1.0,234.0,1,2136.5054,39.0,24.0,DON'T EAT                                    EAT,2135.9788,2123.886,1857.2839
236,1,False,left,avoid,pos,meat8_crop.jpg,3,24,1.0,235.0,1,2138.5562,39.0,24.0,DON'T EAT                                    EAT,2137.9976,2123.886,1857.2839
237,1,False,left,avoid,pos,meat38_crop.jpg,3,24,1.0,236.0,1,2140.5344,39.0,24.0,DON'T EAT                                    EAT,2140.016,2123.886,1857.2839
238,1,True,left,approach,neg,insect13_crop.jpg,3,24,1.0,237.0,2,2143.1545,39.0,24.0,DON'T EAT                                    EAT,2142.0344,2123.886,1857.2839
239,1,False,left,avoid,pos,meat17_crop.jpg,3,24,1.0,238.0,1,2144.834,39.0,24.0,DON'T EAT                                    EAT,2144.0527,2123.886,1857.2839
240,1,False,left,avoid,pos,meat2_crop.jpg,3,24,1.0,239.0,1,2146.726,39.0,24.0,DON'T EAT                                    EAT,2146.071,2123.886,1857.2839
241,3,False,right,avoid,neg,fungus25_crop.jpg,4,25,1.0,240.0,1,2243.0906,39.0,25.0,DON'T EAT                                    EAT,2241.6838,2237.6638,2225.999
242,3,False,right,avoid,neg,fungus3_crop.jpg,4,25,1.0,241.0,1,2244.646,39.0,25.0,DON'T EAT                                    EAT,2243.7014,2237.6638,2225.999
243,3,False,right,avoid,neg,fungus8_crop.jpg,4,25,1.0,242.0,1,2246.733,39.0,25.0,DON'T EAT                                    EAT,2245.7205,2237.6638,2225.999
244,3,False,right,avoid,neg,fungus24_crop.jpg,4,25,1.0,243.0,1,2248.5613,39.0,25.0,DON'T EAT                                    EAT,2247.7388,2237.6638,2225.999
245,3,False,right,avoid,neg,fungus5_crop.jpg,4,25,1.0,244.0,1,2250.453,39.0,25.0,DON'T EAT                                    EAT,2249.757,2237.6638,2225.999
246,3,False,right,avoid,neg,fungus39_crop.jpg,4,25,1.0,245.0,1,2252.7166,39.0,25.0,DON'T EAT                                    EAT,2251.7756,2237.6638,2225.999
247,3,False,right,avoid,neg,fungus18_crop.jpg,4,25,1.0,246.0,1,2254.5168,39.0,25.0,DON'T EAT                                    EAT,2253.7935,2237.6638,2225.999
248,3,False,right,avoid,neg,fungus1_crop.jpg,4,25,1.0,247.0,1,2256.5347,39.0,25.0,DON'T EAT                                    EAT,2255.8123,2237.6638,2225.999
249,3,True,right,approach,neg,insect40_crop.jpg,4,25,1.0,248.0,2,2258.926,39.0,25.0,DON'T EAT                                    EAT,2257.8306,2237.6638,2225.999
250,3,True,right,approach,pos,cake5_crop.jpg,4,25,1.0,249.0,2,2260.759,39.0,25.0,DON'T EAT                                    EAT,2259.8489,2237.6638,2225.999
251,2,False,right,approach,neg,insect1_crop.jpg,4,26,1.0,250.0,2,2278.9302,39.0,26.0,DON'T EAT                                    EAT,2277.847,2273.8267,2225.999
252,2,False,right,approach,neg,insect8_crop.jpg,4,26,1.0,251.0,2,2280.4878,39.0,26.0,DON'T EAT                                    EAT,2279.8655,2273.8267,2225.999
253,2,False,right,approach,neg,insect22_crop.jpg,4,26,1.0,252.0,2,2282.3796,39.0,26.0,DON'T EAT                                    EAT,2281.8835,2273.8267,2225.999
254,2,True,right,avoid,pos,meat40_crop.jpg,4,26,1.0,253.0,1,2284.754,39.0,26.0,DON'T EAT                                    EAT,2283.9016,2273.8267,2225.999
255,2,False,right,approach,neg,insect3_crop.jpg,4,26,1.0,254.0,2,2286.784,39.0,26.0,DON'T EAT                                    EAT,2285.9204,2273.8267,2225.999
256,2,False,right,approach,neg,insect38_crop.jpg,4,26,1.0,255.0,2,2288.4539,39.0,26.0,DON'T EAT                                    EAT,2287.939,2273.8267,2225.999
257,2,False,right,approach,neg,insect26_crop.jpg,4,26,1.0,256.0,2,2290.546,39.0,26.0,DON'T EAT                                    EAT,2289.957,2273.8267,2225.999
258,2,False,right,approach,neg,insect29_crop.jpg,4,26,1.0,257.0,2,2292.5007,39.0,26.0,DON'T EAT                                    EAT,2291.9756,2273.8267,2225.999
259,2,True,right,avoid,neg,fungus22_crop.jpg,4,26,1.0,258.0,1,2294.7832,39.0,26.0,DON'T EAT                                    EAT,2293.994,2273.8267,2225.999
260,2,False,right,approach,neg,insect18_crop.jpg,4,26,1.0,259.0,2,2296.862,39.0,26.0,DON'T EAT                                    EAT,2296.0122,2273.8267,2225.999
261,0,False,left,avoid,neg,fungus5_crop.jpg,4,27,1.0,260.0,1,2315.9666,39.0,27.0,DON'T EAT                                    EAT,2314.9944,2310.9746,2225.999
262,0,True,left,approach,neg,insect33_crop.jpg,4,27,1.0,261.0,2,2318.0498,39.0,27.0,DON'T EAT                                    EAT,2317.0127,2310.9746,2225.999
263,0,True,left,approach,pos,cake25_crop.jpg,4,27,1.0,262.0,2,2319.751,39.0,27.0,DON'T EAT                                    EAT,2319.0315,2310.9746,2225.999
264,0,False,left,avoid,neg,fungus31_crop.jpg,4,27,1.0,263.0,1,2322.074,39.0,27.0,DON'T EAT                                    EAT,2321.0498,2310.9746,2225.999
265,0,False,left,avoid,neg,fungus39_crop.jpg,4,27,1.0,264.0,1,2323.9155,39.0,27.0,DON'T EAT                                    EAT,2323.068,2310.9746,2225.999
266,0,False,left,avoid,neg,fungus28_crop.jpg,4,27,1.0,265.0,1,2325.657,39.0,27.0,DON'T EAT                                    EAT,2325.0864,2310.9746,2225.999
267,0,False,left,avoid,neg,fungus2_crop.jpg,4,27,1.0,266.0,1,2327.789,39.0,27.0,DON'T EAT                                    EAT,2327.1047,2310.9746,2225.999
268,0,False,left,avoid,neg,fungus17_crop.jpg,4,27,1.0,267.0,1,2329.8086,39.0,27.0,DON'T EAT                                    EAT,2329.123,2310.9746,2225.999
269,0,False,left,avoid,neg,fungus13_crop.jpg,4,27,1.0,268.0,1,2331.89,39.0,27.0,DON'T EAT                                    EAT,2331.1414,2310.9746,2225.999
270,0,False,left,avoid,neg,fungus21_crop.jpg,4,27,1.0,269.0,1,2333.9126,39.0,27.0,DON'T EAT                                    EAT,2333.16,2310.9746,2225.999
271,2,False,left,approach,pos,cake36_crop.jpg,4,28,1.0,270.0,2,2351.126,39.0,28.0,DON'T EAT                                    EAT,2349.8237,2345.8035,2225.999
272,2,False,left,approach,pos,cake6_crop.jpg,4,28,1.0,271.0,2,2352.4426,39.0,28.0,DON'T EAT                                    EAT,2351.8418,2345.8035,2225.999
273,2,True,left,avoid,neg,fungus20_crop.jpg,4,28,1.0,272.0,1,2354.9607,39.0,28.0,DON'T EAT                                    EAT,2353.8599,2345.8035,2225.999
274,2,False,left,approach,pos,cake5_crop.jpg,4,28,1.0,273.0,2,2356.9888,39.0,28.0,DON'T EAT                                    EAT,2355.8787,2345.8035,2225.999
275,2,False,left,approach,pos,cake27_crop.jpg,4,28,1.0,274.0,2,2358.7688,39.0,28.0,DON'T EAT                                    EAT,2357.897,2345.8035,2225.999
276,2,False,left,approach,pos,cake7_crop.jpg,4,28,1.0,275.0,2,2360.9685,39.0,28.0,DON'T EAT                                    EAT,2359.9153,2345.8035,2225.999
277,2,False,left,approach,pos,cake13_crop.jpg,4,28,1.0,276.0,2,2362.6936,39.0,28.0,DON'T EAT                                    EAT,2361.9336,2345.8035,2225.999
278,2,False,left,approach,pos,cake23_crop.jpg,4,28,1.0,277.0,2,2364.7012,39.0,28.0,DON'T EAT                                    EAT,2363.9514,2345.8035,2225.999
279,2,True,left,avoid,pos,meat6_crop.jpg,4,28,1.0,278.0,1,2367.0042,39.0,28.0,DON'T EAT                                    EAT,2365.9705,2345.8035,2225.999
280,2,False,left,approach,pos,cake35_crop.jpg,4,28,1.0,279.0,2,2369.3706,39.0,28.0,DON'T EAT                                    EAT,2367.9888,2345.8035,2225.999
281,0,False,right,approach,neg,insect15_crop.jpg,4,29,1.0,280.0,2,2389.086,39.0,29.0,DON'T EAT                                    EAT,2387.9888,2383.9849,2225.999
282,0,False,right,approach,neg,insect17_crop.jpg,4,29,1.0,281.0,2,2390.5437,39.0,29.0,DON'T EAT                                    EAT,2390.007,2383.9849,2225.999
283,0,False,right,approach,neg,insect12_crop.jpg,4,29,1.0,282.0,2,2392.4355,39.0,29.0,DON'T EAT                                    EAT,2392.0254,2383.9849,2225.999
284,0,False,right,approach,neg,insect35_crop.jpg,4,29,1.0,283.0,2,2394.5176,39.0,29.0,DON'T EAT                                    EAT,2394.0432,2383.9849,2225.999
285,0,False,right,approach,neg,insect39_crop.jpg,4,29,1.0,284.0,2,2396.4934,39.0,29.0,DON'T EAT                                    EAT,2396.062,2383.9849,2225.999
286,0,False,right,approach,neg,insect33_crop.jpg,4,29,1.0,285.0,2,2398.7368,39.0,29.0,DON'T EAT                                    EAT,2398.0803,2383.9849,2225.999
287,0,True,right,avoid,neg,fungus19_crop.jpg,4,29,1.0,286.0,1,2400.9863,39.0,29.0,DON'T EAT                                    EAT,2400.0986,2383.9849,2225.999
288,0,False,right,approach,neg,insect27_crop.jpg,4,29,1.0,287.0,2,2403.0142,39.0,29.0,DON'T EAT                                    EAT,2402.1172,2383.9849,2225.999
289,0,False,right,approach,neg,insect25_crop.jpg,4,29,1.0,288.0,2,2404.6624,39.0,29.0,DON'T EAT                                    EAT,2404.1353,2383.9849,2225.999
290,0,True,right,avoid,pos,meat31_crop.jpg,4,29,1.0,289.0,1,2407.102,39.0,29.0,DON'T EAT                                    EAT,2406.1538,2383.9849,2225.999
291,0,True,right,approach,neg,insect6_crop.jpg,4,30,1.0,290.0,2,2423.5505,39.0,30.0,DON'T EAT                                    EAT,2422.4006,2418.3806,2225.999
292,0,False,right,avoid,pos,meat32_crop.jpg,4,30,1.0,291.0,1,2425.37,39.0,30.0,DON'T EAT                                    EAT,2424.419,2418.3806,2225.999
293,0,True,right,approach,pos,cake15_crop.jpg,4,30,1.0,292.0,2,2427.3005,39.0,30.0,DON'T EAT                                    EAT,2426.437,2418.3806,2225.999
294,0,False,right,avoid,pos,meat30_crop.jpg,4,30,1.0,293.0,1,2429.1675,39.0,30.0,DON'T EAT                                    EAT,2428.4556,2418.3806,2225.999
295,0,False,right,avoid,pos,meat2_crop.jpg,4,30,1.0,294.0,1,2431.0974,39.0,30.0,DON'T EAT                                    EAT,2430.474,2418.3806,2225.999
296,0,False,right,avoid,pos,meat18_crop.jpg,4,30,1.0,295.0,1,2433.1897,39.0,30.0,DON'T EAT                                    EAT,2432.4924,2418.3806,2225.999
297,0,False,right,avoid,pos,meat27_crop.jpg,4,30,1.0,296.0,1,2435.112,39.0,30.0,DON'T EAT                                    EAT,2434.5103,2418.3806,2225.999
298,0,False,right,avoid,pos,meat11_crop.jpg,4,30,1.0,297.0,1,2437.1729,39.0,30.0,DON'T EAT                                    EAT,2436.529,2418.3806,2225.999
299,0,False,right,avoid,pos,meat25_crop.jpg,4,30,1.0,298.0,1,2439.2583,39.0,30.0,DON'T EAT                                    EAT,2438.5469,2418.3806,2225.999
300,0,False,right,avoid,pos,meat23_crop.jpg,4,30,1.0,299.0,1,2441.2825,39.0,30.0,DON'T EAT                                    EAT,2440.5657,2418.3806,2225.999
301,1,False,left,approach,pos,cake32_crop.jpg,4,31,1.0,300.0,2,2460.8618,39.0,31.0,DON'T EAT                                    EAT,2459.6482,2455.6277,2225.999
302,1,False,left,approach,pos,cake16_crop.jpg,4,31,1.0,301.0,2,2462.299,39.0,31.0,DON'T EAT                                    EAT,2461.6667,2455.6277,2225.999
303,1,True,left,avoid,pos,meat28_crop.jpg,4,31,1.0,302.0,1,2464.527,39.0,31.0,DON'T EAT                                    EAT,2463.6843,2455.6277,2225.999
304,1,False,left,approach,pos,cake33_crop.jpg,4,31,1.0,303.0,2,2466.5479,39.0,31.0,DON'T EAT                                    EAT,2465.7031,2455.6277,2225.999
305,1,False,left,approach,pos,cake22_crop.jpg,4,31,1.0,304.0,2,2468.335,39.0,31.0,DON'T EAT                                    EAT,2467.7217,2455.6277,2225.999
306,1,False,left,approach,pos,cake4_crop.jpg,4,31,1.0,305.0,2,2470.6155,39.0,31.0,DON'T EAT                                    EAT,2469.7397,2455.6277,2225.999
307,1,False,left,approach,pos,cake30_crop.jpg,4,31,1.0,306.0,2,2472.538,39.0,31.0,DON'T EAT                                    EAT,2471.7583,2455.6277,2225.999
308,1,True,left,avoid,neg,fungus3_crop.jpg,4,31,1.0,307.0,1,2474.6208,39.0,31.0,DON'T EAT                                    EAT,2473.7761,2455.6277,2225.999
309,1,False,left,approach,pos,cake15_crop.jpg,4,31,1.0,308.0,2,2476.5413,39.0,31.0,DON'T EAT                                    EAT,2475.795,2455.6277,2225.999
310,1,False,left,approach,pos,cake29_crop.jpg,4,31,1.0,309.0,2,2478.4016,39.0,31.0,DON'T EAT                                    EAT,2477.813,2455.6277,2225.999
311,3,False,left,avoid,neg,fungus40_crop.jpg,4,32,1.0,310.0,1,2497.9414,39.0,32.0,DON'T EAT                                    EAT,2496.8125,2492.7922,2225.999
312,3,True,left,approach,neg,insect34_crop.jpg,4,32,1.0,311.0,2,2499.806,39.0,32.0,DON'T EAT                                    EAT,2498.8308,2492.7922,2225.999
313,3,False,left,avoid,neg,fungus12_crop.jpg,4,32,1.0,312.0,1,2501.5793,39.0,32.0,DON'T EAT                                    EAT,2500.849,2492.7922,2225.999
314,3,False,left,avoid,neg,fungus8_crop.jpg,4,32,1.0,313.0,1,2503.4585,39.0,32.0,DON'T EAT                                    EAT,2502.8672,2492.7922,2225.999
315,3,False,left,avoid,neg,fungus33_crop.jpg,4,32,1.0,314.0,1,2505.5427,39.0,32.0,DON'T EAT                                    EAT,2504.8855,2492.7922,2225.999
316,3,False,left,avoid,neg,fungus25_crop.jpg,4,32,1.0,315.0,1,2507.632,39.0,32.0,DON'T EAT                                    EAT,2506.9043,2492.7922,2225.999
317,3,True,left,approach,pos,cake34_crop.jpg,4,32,1.0,316.0,2,2509.9365,39.0,32.0,DON'T EAT                                    EAT,2508.9224,2492.7922,2225.999
318,3,False,left,avoid,neg,fungus24_crop.jpg,4,32,1.0,317.0,1,2511.721,39.0,32.0,DON'T EAT                                    EAT,2510.941,2492.7922,2225.999
319,3,False,left,avoid,neg,fungus16_crop.jpg,4,32,1.0,318.0,1,2513.6592,39.0,32.0,DON'T EAT                                    EAT,2512.9592,2492.7922,2225.999
320,3,False,left,avoid,neg,fungus18_crop.jpg,4,32,1.0,319.0,1,2515.5999,39.0,32.0,DON'T EAT                                    EAT,2514.9773,2492.7922,2225.999
