subject,trial_number,n_block,catch,hand,mot,val,stim_name,run_number,num_block,ran,order,response,time_of_response,subject_number,left_side_resp_label,trial_onset,blk_instr_onset,baseline_onset,response_hand,response_cleaned,response_lat,response_lat_cleaned,response_meaning,response_meaning_cleaned,condition_mot,condition_val,condition,correct,correct_cleaned,rt
sub-111,1,2,FALSE,right,approach,neg,insect19_crop.jpg,1,1,TRUE,0,2,72.59918,111,DON'T EAT                                    EAT,71.118164,67.097916,55.54481,left,2,right,right,eat,eat,approach,neg,approach-neg,1,1,1481.0160000000178
sub-111,2,2,FALSE,right,approach,neg,insect26_crop.jpg,1,1,TRUE,1,2,74.566925,111,DON'T EAT                                    EAT,73.136375,67.097916,55.54481,left,2,right,right,eat,eat,approach,neg,approach-neg,1,1,1430.550000000003
sub-111,3,2,FALSE,right,approach,neg,insect27_crop.jpg,1,1,TRUE,2,2,76.37228,111,DON'T EAT                                    EAT,75.15473,67.097916,55.54481,left,2,right,right,eat,eat,approach,neg,approach-neg,1,1,1217.550000000003
sub-111,4,2,FALSE,right,approach,neg,insect13_crop.jpg,1,1,TRUE,3,2,78.12326,111,DON'T EAT                                    EAT,77.17298,67.097916,55.54481,left,2,right,right,eat,eat,approach,neg,approach-neg,1,1,950.2799999999988
sub-111,5,2,FALSE,right,approach,neg,insect4_crop.jpg,1,1,TRUE,4,2,80.10166,111,DON'T EAT                                    EAT,79.19131,67.097916,55.54481,left,2,right,right,eat,eat,approach,neg,approach-neg,1,1,910.3499999999913
sub-111,6,2,TRUE,right,avoid,pos,meat25_crop.jpg,1,1,TRUE,5,2,82.73169,111,DON'T EAT                                    EAT,81.20964,67.097916,55.54481,left,2,right,right,eat,eat,approach,neg,approach-neg,0,0,1522.050000000003
sub-111,7,2,FALSE,right,approach,neg,insect5_crop.jpg,1,1,TRUE,6,2,84.113144,111,DON'T EAT                                    EAT,83.23348,67.097916,55.54481,left,2,right,right,eat,eat,approach,neg,approach-neg,1,1,879.6640000000043
sub-111,8,2,FALSE,right,approach,neg,insect6_crop.jpg,1,1,TRUE,7,2,86.09689,111,DON'T EAT                                    EAT,85.24948,67.097916,55.54481,left,2,right,right,eat,eat,approach,neg,approach-neg,1,1,847.4099999999889
sub-111,9,2,FALSE,right,approach,neg,insect10_crop.jpg,1,1,TRUE,8,2,88.2918,111,DON'T EAT                                    EAT,87.2647,67.097916,55.54481,left,2,right,right,eat,eat,approach,neg,approach-neg,1,1,1027.0999999999767
sub-111,10,2,TRUE,right,avoid,neg,fungus7_crop.jpg,1,1,TRUE,9,1,90.39644,111,DON'T EAT                                    EAT,89.28314,67.097916,55.54481,left,1,left,left,not_eat,not_eat,approach,neg,approach-neg,1,1,1113.300000000003
sub-111,11,1,TRUE,right,avoid,pos,meat1_crop.jpg,1,2,TRUE,10,1,108.40516,111,DON'T EAT                                    EAT,106.7977,102.777626,55.54481,left,1,left,left,not_eat,not_eat,approach,neg,approach-neg,1,1,1607.4599999999773
sub-111,12,1,FALSE,right,approach,neg,insect15_crop.jpg,1,2,TRUE,11,2,109.69251,111,DON'T EAT                                    EAT,108.81592,102.777626,55.54481,left,2,right,right,eat,eat,approach,neg,approach-neg,1,1,876.589999999982
sub-111,13,1,FALSE,right,approach,neg,insect40_crop.jpg,1,2,TRUE,12,2,111.6602,111,DON'T EAT                                    EAT,110.83424,102.777626,55.54481,left,2,right,right,eat,eat,approach,neg,approach-neg,1,1,825.9600000000064
sub-111,14,1,FALSE,right,approach,neg,insect22_crop.jpg,1,2,TRUE,13,2,113.64029,111,DON'T EAT                                    EAT,112.85259,102.777626,55.54481,left,2,right,right,eat,eat,approach,neg,approach-neg,1,1,787.6999999999825
sub-111,15,1,FALSE,right,approach,neg,insect39_crop.jpg,1,2,TRUE,14,2,115.75906,111,DON'T EAT                                    EAT,114.87091,102.777626,55.54481,left,2,right,right,eat,eat,approach,neg,approach-neg,1,1,888.1500000000233
sub-111,16,1,TRUE,right,avoid,neg,fungus37_crop.jpg,1,2,TRUE,15,1,117.95087,111,DON'T EAT                                    EAT,116.889275,102.777626,55.54481,left,1,left,left,not_eat,not_eat,approach,neg,approach-neg,1,1,1061.5950000000012
sub-111,17,1,FALSE,right,approach,neg,insect12_crop.jpg,1,2,TRUE,16,2,119.76331,111,DON'T EAT                                    EAT,118.90773,102.777626,55.54481,left,2,right,right,eat,eat,approach,neg,approach-neg,1,1,855.5800000000017
sub-111,18,1,FALSE,right,approach,neg,insect34_crop.jpg,1,2,TRUE,17,2,122.073555,111,DON'T EAT                                    EAT,120.92545,102.777626,55.54481,left,2,right,right,eat,eat,approach,neg,approach-neg,1,1,1148.104999999996
sub-111,19,1,FALSE,right,approach,neg,insect29_crop.jpg,1,2,TRUE,18,2,124.07853,111,DON'T EAT                                    EAT,122.94429,102.777626,55.54481,left,2,right,right,eat,eat,approach,neg,approach-neg,1,1,1134.2400000000052
sub-111,20,1,FALSE,right,approach,neg,insect35_crop.jpg,1,2,TRUE,19,2,126.11629,111,DON'T EAT                                    EAT,124.96273,102.777626,55.54481,left,2,right,right,eat,eat,approach,neg,approach-neg,1,1,1153.5600000000122
sub-111,21,1,FALSE,right,avoid,neg,fungus14_crop.jpg,1,3,TRUE,20,1,144.83022,111,DON'T EAT                                    EAT,143.64485,139.62483,55.54481,left,1,left,left,not_eat,not_eat,avoid,neg,avoid-neg,1,1,1185.3700000000244
sub-111,22,1,FALSE,right,avoid,neg,fungus40_crop.jpg,1,3,TRUE,21,1,147.10631,111,DON'T EAT                                    EAT,145.66327,139.62483,55.54481,left,1,left,left,not_eat,not_eat,avoid,neg,avoid-neg,1,1,1443.039999999979
sub-111,23,1,TRUE,right,approach,neg,insect2_crop.jpg,1,3,TRUE,22,2,148.69972,111,DON'T EAT                                    EAT,147.68147,139.62483,55.54481,left,2,right,right,eat,eat,avoid,neg,avoid-neg,1,1,1018.25
sub-111,24,1,FALSE,right,avoid,neg,fungus35_crop.jpg,1,3,TRUE,23,1,150.84325,111,DON'T EAT                                    EAT,149.70026,139.62483,55.54481,left,1,left,left,not_eat,not_eat,avoid,neg,avoid-neg,1,1,1142.9900000000198
sub-111,25,1,FALSE,right,avoid,neg,fungus18_crop.jpg,1,3,TRUE,24,1,152.79901,111,DON'T EAT                                    EAT,151.71822,139.62483,55.54481,left,1,left,left,not_eat,not_eat,avoid,neg,avoid-neg,1,1,1080.7900000000081
sub-111,26,1,FALSE,right,avoid,neg,fungus32_crop.jpg,1,3,TRUE,25,1,155.03015,111,DON'T EAT                                    EAT,153.73653,139.62483,55.54481,left,1,left,left,not_eat,not_eat,avoid,neg,avoid-neg,1,1,1293.6199999999953
sub-111,27,1,FALSE,right,avoid,neg,fungus26_crop.jpg,1,3,TRUE,26,1,157.04431,111,DON'T EAT                                    EAT,155.75485,139.62483,55.54481,left,1,left,left,not_eat,not_eat,avoid,neg,avoid-neg,1,1,1289.4599999999919
sub-111,28,1,TRUE,right,approach,pos,cake32_crop.jpg,1,3,TRUE,27,2,159.10771,111,DON'T EAT                                    EAT,157.77322,139.62483,55.54481,left,2,right,right,eat,eat,avoid,neg,avoid-neg,1,1,1334.4899999999907
sub-111,29,1,FALSE,right,avoid,neg,fungus9_crop.jpg,1,3,TRUE,28,1,161.09436,111,DON'T EAT                                    EAT,159.79152,139.62483,55.54481,left,1,left,left,not_eat,not_eat,avoid,neg,avoid-neg,1,1,1302.8399999999965
sub-111,30,1,FALSE,right,avoid,neg,fungus12_crop.jpg,1,3,TRUE,29,1,163.48508,111,DON'T EAT                                    EAT,161.8097,139.62483,55.54481,left,1,left,left,not_eat,not_eat,avoid,neg,avoid-neg,1,1,1675.3800000000338
sub-111,31,0,FALSE,left,avoid,neg,fungus3_crop.jpg,1,4,TRUE,30,1,179.6351,111,DON'T EAT                                    EAT,178.2903,174.27025,55.54481,left,1,left,left,not_eat,not_eat,avoid,neg,avoid-neg,1,1,1344.8000000000175
sub-111,32,0,FALSE,left,avoid,neg,fungus7_crop.jpg,1,4,TRUE,31,1,181.32799,111,DON'T EAT                                    EAT,180.30872,174.27025,55.54481,left,1,left,left,not_eat,not_eat,avoid,neg,avoid-neg,1,1,1019.2699999999895
sub-111,33,0,TRUE,left,approach,pos,cake13_crop.jpg,1,4,TRUE,32,2,183.52342,111,DON'T EAT                                    EAT,182.32703,174.27025,55.54481,left,2,right,right,eat,eat,avoid,neg,avoid-neg,1,1,1196.3899999999849
sub-111,34,0,FALSE,left,avoid,neg,fungus10_crop.jpg,1,4,TRUE,33,1,185.27988,111,DON'T EAT                                    EAT,184.34541,174.27025,55.54481,left,1,left,left,not_eat,not_eat,avoid,neg,avoid-neg,1,1,934.4700000000303
sub-111,35,0,FALSE,left,avoid,neg,fungus6_crop.jpg,1,4,TRUE,34,1,187.41042,111,DON'T EAT                                    EAT,186.3637,174.27025,55.54481,left,1,left,left,not_eat,not_eat,avoid,neg,avoid-neg,1,1,1046.7200000000012
sub-111,36,0,FALSE,left,avoid,neg,fungus35_crop.jpg,1,4,TRUE,35,1,189.53418,111,DON'T EAT                                    EAT,188.38194,174.27025,55.54481,left,1,left,left,not_eat,not_eat,avoid,neg,avoid-neg,1,1,1152.2400000000198
sub-111,37,0,TRUE,left,approach,neg,insect35_crop.jpg,1,4,TRUE,36,2,191.5441,111,DON'T EAT                                    EAT,190.40027,174.27025,55.54481,left,2,right,right,eat,eat,avoid,neg,avoid-neg,1,1,1143.829999999958
sub-111,38,0,FALSE,left,avoid,neg,fungus19_crop.jpg,1,4,TRUE,37,1,193.42218,111,DON'T EAT                                    EAT,192.41867,174.27025,55.54481,left,1,left,left,not_eat,not_eat,avoid,neg,avoid-neg,1,1,1003.5100000000093
sub-111,39,0,FALSE,left,avoid,neg,fungus32_crop.jpg,1,4,TRUE,38,1,195.62627,111,DON'T EAT                                    EAT,194.437,174.27025,55.54481,left,1,left,left,not_eat,not_eat,avoid,neg,avoid-neg,1,1,1189.2700000000186
sub-111,40,0,FALSE,left,avoid,neg,fungus8_crop.jpg,1,4,TRUE,39,1,197.7563,111,DON'T EAT                                    EAT,196.4554,174.27025,55.54481,left,1,left,left,not_eat,not_eat,avoid,neg,avoid-neg,1,1,1300.9000000000233
sub-111,41,1,FALSE,left,avoid,pos,meat22_crop.jpg,1,5,TRUE,40,1,214.29977,111,DON'T EAT                                    EAT,213.06914,209.0491,55.54481,left,1,left,left,not_eat,not_eat,avoid,pos,avoid-pos,1,1,1230.6299999999756
sub-111,42,1,TRUE,left,approach,pos,cake5_crop.jpg,1,5,TRUE,41,2,216.19026,111,DON'T EAT                                    EAT,215.08755,209.0491,55.54481,left,2,right,right,eat,eat,avoid,pos,avoid-pos,1,1,1102.710000000021
sub-111,43,1,FALSE,left,avoid,pos,meat36_crop.jpg,1,5,TRUE,42,1,218.60905,111,DON'T EAT                                    EAT,217.10596,209.0491,55.54481,left,1,left,left,not_eat,not_eat,avoid,pos,avoid-pos,1,1,1503.0899999999674
sub-111,44,1,FALSE,left,avoid,pos,meat4_crop.jpg,1,5,TRUE,43,2,220.57553,111,DON'T EAT                                    EAT,219.12415,209.0491,55.54481,left,2,right,right,eat,eat,avoid,pos,avoid-pos,0,0,1451.3800000000047
sub-111,45,1,FALSE,left,avoid,pos,meat28_crop.jpg,1,5,TRUE,44,1,222.41315,111,DON'T EAT                                    EAT,221.1426,209.0491,55.54481,left,1,left,left,not_eat,not_eat,avoid,pos,avoid-pos,1,1,1270.5500000000175
sub-111,46,1,FALSE,left,avoid,pos,meat12_crop.jpg,1,5,TRUE,45,1,224.31625,111,DON'T EAT                                    EAT,223.16054,209.0491,55.54481,left,1,left,left,not_eat,not_eat,avoid,pos,avoid-pos,1,1,1155.7099999999919
sub-111,47,1,FALSE,left,avoid,pos,meat1_crop.jpg,1,5,TRUE,46,1,226.50002,111,DON'T EAT                                    EAT,225.17917,209.0491,55.54481,left,1,left,left,not_eat,not_eat,avoid,pos,avoid-pos,1,1,1320.8500000000058
sub-111,48,1,FALSE,left,avoid,pos,meat25_crop.jpg,1,5,TRUE,47,1,228.62793,111,DON'T EAT                                    EAT,227.19762,209.0491,55.54481,left,1,left,left,not_eat,not_eat,avoid,pos,avoid-pos,1,1,1430.3099999999977
sub-111,49,1,FALSE,left,avoid,pos,meat32_crop.jpg,1,5,TRUE,48,1,230.30525,111,DON'T EAT                                    EAT,229.21591,209.0491,55.54481,left,1,left,left,not_eat,not_eat,avoid,pos,avoid-pos,1,1,1089.3399999999965
sub-111,50,1,TRUE,left,approach,neg,insect36_crop.jpg,1,5,TRUE,49,2,232.88985,111,DON'T EAT                                    EAT,231.23427,209.0491,55.54481,left,2,right,right,eat,eat,avoid,pos,avoid-pos,1,1,1655.5799999999872
sub-111,51,1,TRUE,left,approach,pos,cake24_crop.jpg,1,6,TRUE,50,2,252.18393,111,DON'T EAT                                    EAT,251.11755,247.0975,55.54481,left,2,right,right,eat,eat,avoid,neg,avoid-neg,1,1,1066.3800000000047
sub-111,52,1,FALSE,left,avoid,neg,fungus5_crop.jpg,1,6,TRUE,51,1,254.65929,111,DON'T EAT                                    EAT,253.1358,247.0975,55.54481,left,1,left,left,not_eat,not_eat,avoid,neg,avoid-neg,1,1,1523.4900000000198
sub-111,53,1,FALSE,left,avoid,neg,fungus36_crop.jpg,1,6,TRUE,52,1,256.72055,111,DON'T EAT                                    EAT,255.154,247.0975,55.54481,left,1,left,left,not_eat,not_eat,avoid,neg,avoid-neg,1,1,1566.5499999999884
sub-111,54,1,FALSE,left,avoid,neg,fungus4_crop.jpg,1,6,TRUE,53,1,258.40295,111,DON'T EAT                                    EAT,257.1724,247.0975,55.54481,left,1,left,left,not_eat,not_eat,avoid,neg,avoid-neg,1,1,1230.5499999999884
sub-111,55,1,FALSE,left,avoid,neg,fungus21_crop.jpg,1,6,TRUE,54,--,NA,111,DON'T EAT                                    EAT,259.19046,247.0975,55.54481,left,--,NA,NA,no_response,no_response,avoid,neg,avoid-neg,NA,NA,NA
sub-111,56,1,FALSE,left,avoid,neg,fungus34_crop.jpg,1,6,TRUE,55,1,262.60507,111,DON'T EAT                                    EAT,261.20914,247.0975,55.54481,left,1,left,left,not_eat,not_eat,avoid,neg,avoid-neg,1,1,1395.9300000000221
sub-111,57,1,FALSE,left,avoid,neg,fungus14_crop.jpg,1,6,TRUE,56,1,264.2469,111,DON'T EAT                                    EAT,263.22763,247.0975,55.54481,left,1,left,left,not_eat,not_eat,avoid,neg,avoid-neg,1,1,1019.2699999999604
sub-111,58,1,TRUE,left,approach,neg,insect1_crop.jpg,1,6,TRUE,57,2,266.381,111,DON'T EAT                                    EAT,265.2459,247.0975,55.54481,left,2,right,right,eat,eat,avoid,neg,avoid-neg,1,1,1135.0999999999767
sub-111,59,1,FALSE,left,avoid,neg,fungus1_crop.jpg,1,6,TRUE,58,1,268.23898,111,DON'T EAT                                    EAT,267.26407,247.0975,55.54481,left,1,left,left,not_eat,not_eat,avoid,neg,avoid-neg,1,1,974.9100000000326
sub-111,60,1,FALSE,left,avoid,neg,fungus11_crop.jpg,1,6,TRUE,59,1,270.46872,111,DON'T EAT                                    EAT,269.28253,247.0975,55.54481,left,1,left,left,not_eat,not_eat,avoid,neg,avoid-neg,1,1,1186.1900000000023
sub-111,61,3,TRUE,right,avoid,pos,meat37_crop.jpg,1,7,TRUE,60,1,288.8541,111,DON'T EAT                                    EAT,287.61426,283.59402,55.54481,left,1,left,left,not_eat,not_eat,approach,neg,approach-neg,1,1,1239.8400000000256
sub-111,62,3,FALSE,right,approach,neg,insect33_crop.jpg,1,7,TRUE,61,2,290.88455,111,DON'T EAT                                    EAT,289.6327,283.59402,55.54481,left,2,right,right,eat,eat,approach,neg,approach-neg,1,1,1251.8499999999767
sub-111,63,3,FALSE,right,approach,neg,insect25_crop.jpg,1,7,TRUE,62,2,292.6266,111,DON'T EAT                                    EAT,291.65106,283.59402,55.54481,left,2,right,right,eat,eat,approach,neg,approach-neg,1,1,975.539999999979
sub-111,64,3,FALSE,right,approach,neg,insect30_crop.jpg,1,7,TRUE,63,2,294.86557,111,DON'T EAT                                    EAT,293.66928,283.59402,55.54481,left,2,right,right,eat,eat,approach,neg,approach-neg,1,1,1196.289999999979
sub-111,65,3,FALSE,right,approach,neg,insect31_crop.jpg,1,7,TRUE,64,2,297.13235,111,DON'T EAT                                    EAT,295.68747,283.59402,55.54481,left,2,right,right,eat,eat,approach,neg,approach-neg,1,1,1444.8799999999464
sub-111,66,3,FALSE,right,approach,neg,insect17_crop.jpg,1,7,TRUE,65,2,298.80685,111,DON'T EAT                                    EAT,297.7061,283.59402,55.54481,left,2,right,right,eat,eat,approach,neg,approach-neg,1,1,1100.75
sub-111,67,3,FALSE,right,approach,neg,insect3_crop.jpg,1,7,TRUE,66,2,301.00027,111,DON'T EAT                                    EAT,299.72443,283.59402,55.54481,left,2,right,right,eat,eat,approach,neg,approach-neg,1,1,1275.8400000000256
sub-111,68,3,TRUE,right,avoid,neg,fungus2_crop.jpg,1,7,TRUE,67,1,302.57797,111,DON'T EAT                                    EAT,301.7426,283.59402,55.54481,left,1,left,left,not_eat,not_eat,approach,neg,approach-neg,1,1,835.3699999999953
sub-111,69,3,FALSE,right,approach,neg,insect38_crop.jpg,1,7,TRUE,68,2,304.53564,111,DON'T EAT                                    EAT,303.7608,283.59402,55.54481,left,2,right,right,eat,eat,approach,neg,approach-neg,1,1,774.8399999999674
sub-111,70,3,FALSE,right,approach,neg,insect24_crop.jpg,1,7,TRUE,69,2,306.65994,111,DON'T EAT                                    EAT,305.7794,283.59402,55.54481,left,2,right,right,eat,eat,approach,neg,approach-neg,1,1,880.539999999979
sub-111,71,2,FALSE,left,approach,pos,cake22_crop.jpg,1,8,TRUE,70,2,325.6074,111,DON'T EAT                                    EAT,324.36148,320.3415,55.54481,left,2,right,right,eat,eat,approach,pos,approach-pos,1,1,1245.9199999999837
sub-111,72,2,FALSE,left,approach,pos,cake26_crop.jpg,1,8,TRUE,71,2,327.63208,111,DON'T EAT                                    EAT,326.37994,320.3415,55.54481,left,2,right,right,eat,eat,approach,pos,approach-pos,1,1,1252.1399999999558
sub-111,73,2,TRUE,left,avoid,pos,meat21_crop.jpg,1,8,TRUE,72,1,329.62534,111,DON'T EAT                                    EAT,328.3981,320.3415,55.54481,left,1,left,left,not_eat,not_eat,approach,pos,approach-pos,1,1,1227.2399999999907
sub-111,74,2,FALSE,left,approach,pos,cake35_crop.jpg,1,8,TRUE,73,2,331.44305,111,DON'T EAT                                    EAT,330.4166,320.3415,55.54481,left,2,right,right,eat,eat,approach,pos,approach-pos,1,1,1026.4500000000116
sub-111,75,2,FALSE,left,approach,pos,cake21_crop.jpg,1,8,TRUE,74,2,333.59393,111,DON'T EAT                                    EAT,332.43497,320.3415,55.54481,left,2,right,right,eat,eat,approach,pos,approach-pos,1,1,1158.9599999999627
sub-111,76,2,FALSE,left,approach,pos,cake10_crop.jpg,1,8,TRUE,75,2,335.62024,111,DON'T EAT                                    EAT,334.45312,320.3415,55.54481,left,2,right,right,eat,eat,approach,pos,approach-pos,1,1,1167.1200000000536
sub-111,77,2,FALSE,left,approach,pos,cake30_crop.jpg,1,8,TRUE,76,2,337.47916,111,DON'T EAT                                    EAT,336.47153,320.3415,55.54481,left,2,right,right,eat,eat,approach,pos,approach-pos,1,1,1007.6300000000047
sub-111,78,2,TRUE,left,avoid,neg,fungus24_crop.jpg,1,8,TRUE,77,1,339.60385,111,DON'T EAT                                    EAT,338.49,320.3415,55.54481,left,1,left,left,not_eat,not_eat,approach,pos,approach-pos,1,1,1113.850000000035
sub-111,79,2,FALSE,left,approach,pos,cake25_crop.jpg,1,8,TRUE,78,2,341.38705,111,DON'T EAT                                    EAT,340.50812,320.3415,55.54481,left,2,right,right,eat,eat,approach,pos,approach-pos,1,1,878.929999999993
sub-111,80,2,FALSE,left,approach,pos,cake1_crop.jpg,1,8,TRUE,79,2,343.52615,111,DON'T EAT                                    EAT,342.5268,320.3415,55.54481,left,2,right,right,eat,eat,approach,pos,approach-pos,1,1,999.3499999999767
sub-111,81,1,FALSE,right,approach,pos,cake21_crop.jpg,2,9,TRUE,80,2,434.94232,111,DON'T EAT                                    EAT,433.61856,429.5987,418.35168,right,2,right,right,eat,eat,approach,pos,approach-pos,1,1,1323.7600000000093
sub-111,82,1,TRUE,right,avoid,pos,meat28_crop.jpg,2,9,TRUE,81,1,436.69565,111,DON'T EAT                                    EAT,435.6373,429.5987,418.35168,right,1,left,left,not_eat,not_eat,approach,pos,approach-pos,1,1,1058.350000000035
sub-111,83,1,FALSE,right,approach,pos,cake15_crop.jpg,2,9,TRUE,82,2,438.60043,111,DON'T EAT                                    EAT,437.6556,429.5987,418.35168,right,2,right,right,eat,eat,approach,pos,approach-pos,1,1,944.8300000000163
sub-111,84,1,FALSE,right,approach,pos,cake27_crop.jpg,2,9,TRUE,83,2,440.55365,111,DON'T EAT                                    EAT,439.67398,429.5987,418.35168,right,2,right,right,eat,eat,approach,pos,approach-pos,1,1,879.6700000000419
sub-111,85,1,FALSE,right,approach,pos,cake13_crop.jpg,2,9,TRUE,84,2,442.54022,111,DON'T EAT                                    EAT,441.6923,429.5987,418.35168,right,2,right,right,eat,eat,approach,pos,approach-pos,1,1,847.9199999999837
sub-111,86,1,FALSE,right,approach,pos,cake38_crop.jpg,2,9,TRUE,85,2,444.63303,111,DON'T EAT                                    EAT,443.71033,429.5987,418.35168,right,2,right,right,eat,eat,approach,pos,approach-pos,1,1,922.7000000000116
sub-111,87,1,FALSE,right,approach,pos,cake18_crop.jpg,2,9,TRUE,86,2,446.61917,111,DON'T EAT                                    EAT,445.7289,429.5987,418.35168,right,2,right,right,eat,eat,approach,pos,approach-pos,1,1,890.2699999999604
sub-111,88,1,TRUE,right,avoid,neg,fungus27_crop.jpg,2,9,TRUE,87,1,448.74704,111,DON'T EAT                                    EAT,447.74747,429.5987,418.35168,right,1,left,left,not_eat,not_eat,approach,pos,approach-pos,1,1,999.570000000007
sub-111,89,1,FALSE,right,approach,pos,cake6_crop.jpg,2,9,TRUE,88,2,450.80066,111,DON'T EAT                                    EAT,449.76566,429.5987,418.35168,right,2,right,right,eat,eat,approach,pos,approach-pos,1,1,1034.9999999999418
sub-111,90,1,FALSE,right,approach,pos,cake8_crop.jpg,2,9,TRUE,89,2,452.77005,111,DON'T EAT                                    EAT,451.7841,429.5987,418.35168,right,2,right,right,eat,eat,approach,pos,approach-pos,1,1,985.9500000000116
sub-111,91,2,FALSE,left,avoid,pos,meat30_crop.jpg,2,10,TRUE,90,1,471.20258,111,DON'T EAT                                    EAT,469.99908,465.9791,418.35168,right,1,left,left,not_eat,not_eat,avoid,pos,avoid-pos,1,1,1203.5
sub-111,92,2,FALSE,left,avoid,pos,meat34_crop.jpg,2,10,TRUE,91,1,473.852,111,DON'T EAT                                    EAT,472.01758,465.9791,418.35168,right,1,left,left,not_eat,not_eat,avoid,pos,avoid-pos,1,1,1834.4199999999837
sub-111,93,2,FALSE,left,avoid,pos,meat6_crop.jpg,2,10,TRUE,92,1,475.14926,111,DON'T EAT                                    EAT,474.0358,465.9791,418.35168,right,1,left,left,not_eat,not_eat,avoid,pos,avoid-pos,1,1,1113.460000000021
sub-111,94,2,FALSE,left,avoid,pos,meat14_crop.jpg,2,10,TRUE,93,1,477.0392,111,DON'T EAT                                    EAT,476.05417,465.9791,418.35168,right,1,left,left,not_eat,not_eat,avoid,pos,avoid-pos,1,1,985.0300000000279
sub-111,95,2,TRUE,left,approach,neg,insect32_crop.jpg,2,10,TRUE,94,2,479.04565,111,DON'T EAT                                    EAT,478.07248,465.9791,418.35168,right,2,right,right,eat,eat,avoid,pos,avoid-pos,1,1,973.1700000000419
sub-111,96,2,FALSE,left,avoid,pos,meat19_crop.jpg,2,10,TRUE,95,1,481.1292,111,DON'T EAT                                    EAT,480.09058,465.9791,418.35168,right,1,left,left,not_eat,not_eat,avoid,pos,avoid-pos,1,1,1038.6199999999953
sub-111,97,2,FALSE,left,avoid,pos,meat33_crop.jpg,2,10,TRUE,96,1,483.12653,111,DON'T EAT                                    EAT,482.10916,465.9791,418.35168,right,1,left,left,not_eat,not_eat,avoid,pos,avoid-pos,1,1,1017.3700000000536
sub-111,98,2,FALSE,left,avoid,pos,meat37_crop.jpg,2,10,TRUE,97,1,485.19522,111,DON'T EAT                                    EAT,484.12695,465.9791,418.35168,right,1,left,left,not_eat,not_eat,avoid,pos,avoid-pos,1,1,1068.2700000000186
sub-111,99,2,FALSE,left,avoid,pos,meat11_crop.jpg,2,10,TRUE,98,1,487.969,111,DON'T EAT                                    EAT,486.14587,465.9791,418.35168,right,1,left,left,not_eat,not_eat,avoid,pos,avoid-pos,1,1,1823.1300000000047
sub-111,100,2,TRUE,left,approach,pos,cake27_crop.jpg,2,10,TRUE,99,2,489.21497,111,DON'T EAT                                    EAT,488.16428,465.9791,418.35168,right,2,right,right,eat,eat,avoid,pos,avoid-pos,1,1,1050.6899999999441
sub-111,101,3,FALSE,right,approach,pos,cake4_crop.jpg,2,11,TRUE,100,2,509.2442,111,DON'T EAT                                    EAT,508.01407,503.99384,418.35168,right,2,right,right,eat,eat,approach,pos,approach-pos,1,1,1230.1299999999464
sub-111,102,3,FALSE,right,approach,pos,cake11_crop.jpg,2,11,TRUE,101,2,511.00626,111,DON'T EAT                                    EAT,510.03232,503.99384,418.35168,right,2,right,right,eat,eat,approach,pos,approach-pos,1,1,973.9400000000023
sub-111,103,3,FALSE,right,approach,pos,cake22_crop.jpg,2,11,TRUE,102,2,512.9199,111,DON'T EAT                                    EAT,512.05035,503.99384,418.35168,right,2,right,right,eat,eat,approach,pos,approach-pos,1,1,869.5499999999884
sub-111,104,3,TRUE,right,avoid,neg,fungus1_crop.jpg,2,11,TRUE,103,1,515.16156,111,DON'T EAT                                    EAT,514.0691,503.99384,418.35168,right,1,left,left,not_eat,not_eat,approach,pos,approach-pos,1,1,1092.4599999999627
sub-111,105,3,FALSE,right,approach,pos,cake40_crop.jpg,2,11,TRUE,104,2,517.1363,111,DON'T EAT                                    EAT,516.0874,503.99384,418.35168,right,2,right,right,eat,eat,approach,pos,approach-pos,1,1,1048.899999999965
sub-111,106,3,FALSE,right,approach,pos,cake23_crop.jpg,2,11,TRUE,105,2,519.1969,111,DON'T EAT                                    EAT,518.1057,503.99384,418.35168,right,2,right,right,eat,eat,approach,pos,approach-pos,1,1,1091.2000000000698
sub-111,107,3,TRUE,right,avoid,pos,meat34_crop.jpg,2,11,TRUE,106,1,521.4802,111,DON'T EAT                                    EAT,520.124,503.99384,418.35168,right,1,left,left,not_eat,not_eat,approach,pos,approach-pos,1,1,1356.1999999999534
sub-111,108,3,FALSE,right,approach,pos,cake14_crop.jpg,2,11,TRUE,107,2,523.03314,111,DON'T EAT                                    EAT,522.1424,503.99384,418.35168,right,2,right,right,eat,eat,approach,pos,approach-pos,1,1,890.7400000000489
sub-111,109,3,FALSE,right,approach,pos,cake25_crop.jpg,2,11,TRUE,108,2,524.9873,111,DON'T EAT                                    EAT,524.1609,503.99384,418.35168,right,2,right,right,eat,eat,approach,pos,approach-pos,1,1,826.4000000000815
sub-111,110,3,FALSE,right,approach,pos,cake26_crop.jpg,2,11,TRUE,109,2,527.10974,111,DON'T EAT                                    EAT,526.1789,503.99384,418.35168,right,2,right,right,eat,eat,approach,pos,approach-pos,1,1,930.8399999999674
sub-111,111,3,FALSE,left,avoid,neg,fungus17_crop.jpg,2,12,TRUE,110,1,546.43256,111,DON'T EAT                                    EAT,545.2782,541.25806,418.35168,right,1,left,left,not_eat,not_eat,avoid,neg,avoid-neg,1,1,1154.359999999986
sub-111,112,3,FALSE,left,avoid,neg,fungus15_crop.jpg,2,12,TRUE,111,1,548.42346,111,DON'T EAT                                    EAT,547.29663,541.25806,418.35168,right,1,left,left,not_eat,not_eat,avoid,neg,avoid-neg,1,1,1126.829999999958
sub-111,113,3,FALSE,left,avoid,neg,fungus18_crop.jpg,2,12,TRUE,112,1,550.123,111,DON'T EAT                                    EAT,549.315,541.25806,418.35168,right,1,left,left,not_eat,not_eat,avoid,neg,avoid-neg,1,1,808
sub-111,114,3,FALSE,left,avoid,neg,fungus16_crop.jpg,2,12,TRUE,113,1,552.042,111,DON'T EAT                                    EAT,551.3332,541.25806,418.35168,right,1,left,left,not_eat,not_eat,avoid,neg,avoid-neg,1,1,708.7999999999302
sub-111,115,3,FALSE,left,avoid,neg,fungus29_crop.jpg,2,12,TRUE,114,1,554.5379,111,DON'T EAT                                    EAT,553.3517,541.25806,418.35168,right,1,left,left,not_eat,not_eat,avoid,neg,avoid-neg,1,1,1186.1999999999534
sub-111,116,3,FALSE,left,avoid,neg,fungus38_crop.jpg,2,12,TRUE,115,1,556.52216,111,DON'T EAT                                    EAT,555.3698,541.25806,418.35168,right,1,left,left,not_eat,not_eat,avoid,neg,avoid-neg,1,1,1152.359999999986
sub-111,117,3,FALSE,left,avoid,neg,fungus26_crop.jpg,2,12,TRUE,116,1,558.2225,111,DON'T EAT                                    EAT,557.3885,541.25806,418.35168,right,1,left,left,not_eat,not_eat,avoid,neg,avoid-neg,1,1,834
sub-111,118,3,FALSE,left,avoid,neg,fungus2_crop.jpg,2,12,TRUE,117,1,560.37177,111,DON'T EAT                                    EAT,559.40674,541.25806,418.35168,right,1,left,left,not_eat,not_eat,avoid,neg,avoid-neg,1,1,965.0300000000279
sub-111,119,3,TRUE,left,approach,pos,cake6_crop.jpg,2,12,TRUE,118,2,562.463,111,DON'T EAT                                    EAT,561.42505,541.25806,418.35168,right,2,right,right,eat,eat,avoid,neg,avoid-neg,1,1,1037.9499999999534
sub-111,120,3,TRUE,left,approach,neg,insect17_crop.jpg,2,12,TRUE,119,2,564.3317,111,DON'T EAT                                    EAT,563.44336,541.25806,418.35168,right,2,right,right,eat,eat,avoid,neg,avoid-neg,1,1,888.3399999999674
sub-111,121,0,TRUE,left,avoid,pos,meat9_crop.jpg,2,13,TRUE,120,1,582.05646,111,DON'T EAT                                    EAT,580.77454,576.75415,418.35168,right,1,left,left,not_eat,not_eat,approach,neg,approach-neg,1,1,1281.9199999999255
sub-111,122,0,FALSE,left,approach,neg,insect19_crop.jpg,2,13,TRUE,121,2,583.82385,111,DON'T EAT                                    EAT,582.7928,576.75415,418.35168,right,2,right,right,eat,eat,approach,neg,approach-neg,1,1,1031.0499999999302
sub-111,123,0,FALSE,left,approach,neg,insect21_crop.jpg,2,13,TRUE,122,2,585.5845,111,DON'T EAT                                    EAT,584.811,576.75415,418.35168,right,2,right,right,eat,eat,approach,neg,approach-neg,1,1,773.5
sub-111,124,0,TRUE,left,avoid,neg,fungus30_crop.jpg,2,13,TRUE,123,1,588.0463,111,DON'T EAT                                    EAT,586.82947,576.75415,418.35168,right,1,left,left,not_eat,not_eat,approach,neg,approach-neg,1,1,1216.829999999958
sub-111,125,0,FALSE,left,approach,neg,insect11_crop.jpg,2,13,TRUE,124,2,589.63257,111,DON'T EAT                                    EAT,588.8479,576.75415,418.35168,right,2,right,right,eat,eat,approach,neg,approach-neg,1,1,784.6699999999255
sub-111,126,0,FALSE,left,approach,neg,insect40_crop.jpg,2,13,TRUE,125,2,591.7121,111,DON'T EAT                                    EAT,590.86615,576.75415,418.35168,right,2,right,right,eat,eat,approach,neg,approach-neg,1,1,845.9500000000698
sub-111,127,0,FALSE,left,approach,neg,insect37_crop.jpg,2,13,TRUE,126,2,593.92773,111,DON'T EAT                                    EAT,592.88446,576.75415,418.35168,right,2,right,right,eat,eat,approach,neg,approach-neg,1,1,1043.2700000000186
sub-111,128,0,FALSE,left,approach,neg,insect2_crop.jpg,2,13,TRUE,127,2,595.8807,111,DON'T EAT                                    EAT,594.9028,576.75415,418.35168,right,2,right,right,eat,eat,approach,neg,approach-neg,1,1,977.9000000001397
sub-111,129,0,FALSE,left,approach,neg,insect34_crop.jpg,2,13,TRUE,128,2,597.6297,111,DON'T EAT                                    EAT,596.9211,576.75415,418.35168,right,2,right,right,eat,eat,approach,neg,approach-neg,1,1,708.5999999999767
sub-111,130,0,FALSE,left,approach,neg,insect29_crop.jpg,2,13,TRUE,129,2,599.9041,111,DON'T EAT                                    EAT,598.93945,576.75415,418.35168,right,2,right,right,eat,eat,approach,neg,approach-neg,1,1,964.6500000000233
sub-111,131,2,FALSE,right,avoid,neg,fungus23_crop.jpg,2,14,TRUE,130,1,618.5535,111,DON'T EAT                                    EAT,617.50494,613.48486,418.35168,right,1,left,left,not_eat,not_eat,avoid,neg,avoid-neg,1,1,1048.5599999999395
sub-111,132,2,FALSE,right,avoid,neg,fungus11_crop.jpg,2,14,TRUE,131,1,621.01904,111,DON'T EAT                                    EAT,619.52325,613.48486,418.35168,right,1,left,left,not_eat,not_eat,avoid,neg,avoid-neg,1,1,1495.7900000000373
sub-111,133,2,FALSE,right,avoid,neg,fungus24_crop.jpg,2,14,TRUE,132,1,622.70496,111,DON'T EAT                                    EAT,621.5415,613.48486,418.35168,right,1,left,left,not_eat,not_eat,avoid,neg,avoid-neg,1,1,1163.4600000000792
sub-111,134,2,FALSE,right,avoid,neg,fungus34_crop.jpg,2,14,TRUE,133,1,624.5331,111,DON'T EAT                                    EAT,623.56,613.48486,418.35168,right,1,left,left,not_eat,not_eat,avoid,neg,avoid-neg,1,1,973.0999999999767
sub-111,135,2,TRUE,right,approach,pos,cake29_crop.jpg,2,14,TRUE,134,2,626.7334,111,DON'T EAT                                    EAT,625.57806,613.48486,418.35168,right,2,right,right,eat,eat,avoid,neg,avoid-neg,1,1,1155.339999999851
sub-111,136,2,FALSE,right,avoid,neg,fungus22_crop.jpg,2,14,TRUE,135,1,628.4747,111,DON'T EAT                                    EAT,627.5966,613.48486,418.35168,right,1,left,left,not_eat,not_eat,avoid,neg,avoid-neg,1,1,878.0999999999767
sub-111,137,2,TRUE,right,approach,neg,insect32_crop.jpg,2,14,TRUE,136,2,630.5604,111,DON'T EAT                                    EAT,629.615,613.48486,418.35168,right,2,right,right,eat,eat,avoid,neg,avoid-neg,1,1,945.3999999999069
sub-111,138,2,FALSE,right,avoid,neg,fungus3_crop.jpg,2,14,TRUE,137,1,632.4817,111,DON'T EAT                                    EAT,631.6333,613.48486,418.35168,right,1,left,left,not_eat,not_eat,avoid,neg,avoid-neg,1,1,848.4000000001397
sub-111,139,2,FALSE,right,avoid,neg,fungus21_crop.jpg,2,14,TRUE,138,1,634.7203,111,DON'T EAT                                    EAT,633.6517,613.48486,418.35168,right,1,left,left,not_eat,not_eat,avoid,neg,avoid-neg,1,1,1068.5999999999767
sub-111,140,2,FALSE,right,avoid,neg,fungus15_crop.jpg,2,14,TRUE,139,1,636.53796,111,DON'T EAT                                    EAT,635.6698,613.48486,418.35168,right,1,left,left,not_eat,not_eat,avoid,neg,avoid-neg,1,1,868.1599999999162
sub-111,141,3,TRUE,left,avoid,neg,fungus12_crop.jpg,2,15,TRUE,140,1,656.2751,111,DON'T EAT                                    EAT,655.2029,651.1828,418.35168,right,1,left,left,not_eat,not_eat,approach,neg,approach-neg,1,1,1072.1999999999534
sub-111,142,3,FALSE,left,approach,neg,insect24_crop.jpg,2,15,TRUE,141,2,658.4829,111,DON'T EAT                                    EAT,657.2212,651.1828,418.35168,right,2,right,right,eat,eat,approach,neg,approach-neg,1,1,1261.7000000000698
sub-111,143,3,FALSE,left,approach,neg,insect20_crop.jpg,2,15,TRUE,142,2,660.4649,111,DON'T EAT                                    EAT,659.23956,651.1828,418.35168,right,2,right,right,eat,eat,approach,neg,approach-neg,1,1,1225.3399999999674
sub-111,144,3,FALSE,left,approach,neg,insect3_crop.jpg,2,15,TRUE,143,2,662.327,111,DON'T EAT                                    EAT,661.25793,651.1828,418.35168,right,2,right,right,eat,eat,approach,neg,approach-neg,1,1,1069.0700000000652
sub-111,145,3,FALSE,left,approach,neg,insect28_crop.jpg,2,15,TRUE,144,2,664.6003,111,DON'T EAT                                    EAT,663.27637,651.1828,418.35168,right,2,right,right,eat,eat,approach,neg,approach-neg,1,1,1323.9299999999348
sub-111,146,3,FALSE,left,approach,neg,insect30_crop.jpg,2,15,TRUE,145,2,666.93256,111,DON'T EAT                                    EAT,665.29407,651.1828,418.35168,right,2,right,right,eat,eat,approach,neg,approach-neg,1,1,1638.4899999998743
sub-111,147,3,FALSE,left,approach,neg,insect10_crop.jpg,2,15,TRUE,146,2,668.3777,111,DON'T EAT                                    EAT,667.313,651.1828,418.35168,right,2,right,right,eat,eat,approach,neg,approach-neg,1,1,1064.6999999999534
sub-111,148,3,FALSE,left,approach,neg,insect23_crop.jpg,2,15,TRUE,147,2,670.30493,111,DON'T EAT                                    EAT,669.3312,651.1828,418.35168,right,2,right,right,eat,eat,approach,neg,approach-neg,1,1,973.7300000000978
sub-111,149,3,TRUE,left,avoid,pos,meat35_crop.jpg,2,15,TRUE,148,1,672.419,111,DON'T EAT                                    EAT,671.3496,651.1828,418.35168,right,1,left,left,not_eat,not_eat,approach,neg,approach-neg,1,1,1069.4000000000233
sub-111,150,3,FALSE,left,approach,neg,insect31_crop.jpg,2,15,TRUE,149,2,674.23694,111,DON'T EAT                                    EAT,673.3682,651.1828,418.35168,right,2,right,right,eat,eat,approach,neg,approach-neg,1,1,868.7400000001071
sub-111,151,1,FALSE,left,approach,pos,cake38_crop.jpg,2,16,TRUE,150,2,693.14087,111,DON'T EAT                                    EAT,692.2503,688.2303,418.35168,right,2,right,right,eat,eat,approach,pos,approach-pos,1,1,890.5699999999488
sub-111,152,1,FALSE,left,approach,pos,cake4_crop.jpg,2,16,TRUE,151,2,695.1563,111,DON'T EAT                                    EAT,694.26874,688.2303,418.35168,right,2,right,right,eat,eat,approach,pos,approach-pos,1,1,887.5599999999395
sub-111,153,1,FALSE,left,approach,pos,cake32_crop.jpg,2,16,TRUE,152,2,697.1438,111,DON'T EAT                                    EAT,696.2869,688.2303,418.35168,right,2,right,right,eat,eat,approach,pos,approach-pos,1,1,856.9000000001397
sub-111,154,1,FALSE,left,approach,pos,cake28_crop.jpg,2,16,TRUE,153,2,699.09985,111,DON'T EAT                                    EAT,698.30536,688.2303,418.35168,right,2,right,right,eat,eat,approach,pos,approach-pos,1,1,794.4899999999907
sub-111,155,1,FALSE,left,approach,pos,cake34_crop.jpg,2,16,TRUE,154,2,701.553,111,DON'T EAT                                    EAT,700.3236,688.2303,418.35168,right,2,right,right,eat,eat,approach,pos,approach-pos,1,1,1229.3999999999069
sub-111,156,1,TRUE,left,avoid,neg,fungus22_crop.jpg,2,16,TRUE,155,1,703.3712,111,DON'T EAT                                    EAT,702.34204,688.2303,418.35168,right,1,left,left,not_eat,not_eat,approach,pos,approach-pos,1,1,1029.1600000000326
sub-111,157,1,TRUE,left,avoid,pos,meat2_crop.jpg,2,16,TRUE,156,1,705.335,111,DON'T EAT                                    EAT,704.36035,688.2303,418.35168,right,1,left,left,not_eat,not_eat,approach,pos,approach-pos,1,1,974.6499999999069
sub-111,158,1,FALSE,left,approach,pos,cake29_crop.jpg,2,16,TRUE,157,2,707.4345,111,DON'T EAT                                    EAT,706.3787,688.2303,418.35168,right,2,right,right,eat,eat,approach,pos,approach-pos,1,1,1055.8000000000466
sub-111,159,1,FALSE,left,approach,pos,cake18_crop.jpg,2,16,TRUE,158,2,709.20685,111,DON'T EAT                                    EAT,708.3971,688.2303,418.35168,right,2,right,right,eat,eat,approach,pos,approach-pos,1,1,809.75
sub-111,160,1,FALSE,left,approach,pos,cake23_crop.jpg,2,16,TRUE,159,2,711.24084,111,DON'T EAT                                    EAT,710.4154,688.2303,418.35168,right,2,right,right,eat,eat,approach,pos,approach-pos,1,1,825.4400000000605
sub-111,161,0,FALSE,right,avoid,neg,fungus29_crop.jpg,3,17,TRUE,160,1,795.514,111,DON'T EAT                                    EAT,793.68445,789.6646,779.1037,left,1,left,left,not_eat,not_eat,avoid,neg,avoid-neg,1,1,1829.5500000000466
sub-111,162,0,FALSE,right,avoid,neg,fungus30_crop.jpg,3,17,TRUE,161,1,796.8703,111,DON'T EAT                                    EAT,795.7028,789.6646,779.1037,left,1,left,left,not_eat,not_eat,avoid,neg,avoid-neg,1,1,1167.5
sub-111,163,0,TRUE,right,approach,pos,cake16_crop.jpg,3,17,TRUE,162,2,798.7912,111,DON'T EAT                                    EAT,797.72107,789.6646,779.1037,left,2,right,right,eat,eat,avoid,neg,avoid-neg,1,1,1070.1299999998882
sub-111,164,0,FALSE,right,avoid,neg,fungus5_crop.jpg,3,17,TRUE,163,1,800.6611,111,DON'T EAT                                    EAT,799.7395,789.6646,779.1037,left,1,left,left,not_eat,not_eat,avoid,neg,avoid-neg,1,1,921.5999999999767
sub-111,165,0,FALSE,right,avoid,neg,fungus4_crop.jpg,3,17,TRUE,164,1,802.4895,111,DON'T EAT                                    EAT,801.75793,789.6646,779.1037,left,1,left,left,not_eat,not_eat,avoid,neg,avoid-neg,1,1,731.5700000000652
sub-111,166,0,TRUE,right,approach,neg,insect18_crop.jpg,3,17,TRUE,165,2,804.8132,111,DON'T EAT                                    EAT,803.7763,789.6646,779.1037,left,2,right,right,eat,eat,avoid,neg,avoid-neg,1,1,1036.9000000000233
sub-111,167,0,FALSE,right,avoid,neg,fungus19_crop.jpg,3,17,TRUE,166,1,806.5012,111,DON'T EAT                                    EAT,805.79456,789.6646,779.1037,left,1,left,left,not_eat,not_eat,avoid,neg,avoid-neg,1,1,706.640000000014
sub-111,168,0,FALSE,right,avoid,neg,fungus39_crop.jpg,3,17,TRUE,167,1,808.8808,111,DON'T EAT                                    EAT,807.813,789.6646,779.1037,left,1,left,left,not_eat,not_eat,avoid,neg,avoid-neg,1,1,1067.8000000000466
sub-111,169,0,FALSE,right,avoid,neg,fungus25_crop.jpg,3,17,TRUE,168,1,810.8608,111,DON'T EAT                                    EAT,809.8312,789.6646,779.1037,left,1,left,left,not_eat,not_eat,avoid,neg,avoid-neg,1,1,1029.6000000000931
sub-111,170,0,FALSE,right,avoid,neg,fungus36_crop.jpg,3,17,TRUE,169,1,812.5466,111,DON'T EAT                                    EAT,811.8493,789.6646,779.1037,left,1,left,left,not_eat,not_eat,avoid,neg,avoid-neg,1,1,697.3000000000466
sub-111,171,0,FALSE,right,approach,neg,insect28_crop.jpg,3,18,TRUE,170,2,829.14136,111,DON'T EAT                                    EAT,828.14655,824.1262,779.1037,left,2,right,right,eat,eat,approach,neg,approach-neg,1,1,994.8099999999395
sub-111,172,0,FALSE,right,approach,neg,insect20_crop.jpg,3,18,TRUE,171,2,830.8856,111,DON'T EAT                                    EAT,830.1648,824.1262,779.1037,left,2,right,right,eat,eat,approach,neg,approach-neg,1,1,720.7999999999302
sub-111,173,0,TRUE,right,avoid,pos,meat15_crop.jpg,3,18,TRUE,172,1,833.3052,111,DON'T EAT                                    EAT,832.1831,824.1262,779.1037,left,1,left,left,not_eat,not_eat,approach,neg,approach-neg,1,1,1122.1000000000931
sub-111,174,0,FALSE,right,approach,neg,insect9_crop.jpg,3,18,TRUE,173,2,834.94183,111,DON'T EAT                                    EAT,834.20154,824.1262,779.1037,left,2,right,right,eat,eat,approach,neg,approach-neg,1,1,740.2899999999208
sub-111,175,0,FALSE,right,approach,neg,insect37_crop.jpg,3,18,TRUE,174,2,837.17114,111,DON'T EAT                                    EAT,836.21954,824.1262,779.1037,left,2,right,right,eat,eat,approach,neg,approach-neg,1,1,951.5999999999767
sub-111,176,0,FALSE,right,approach,neg,insect8_crop.jpg,3,18,TRUE,175,2,839.0211,111,DON'T EAT                                    EAT,838.2381,824.1262,779.1037,left,2,right,right,eat,eat,approach,neg,approach-neg,1,1,783.0000000001164
sub-111,177,0,FALSE,right,approach,neg,insect16_crop.jpg,3,18,TRUE,176,2,840.9653,111,DON'T EAT                                    EAT,840.2566,824.1262,779.1037,left,2,right,right,eat,eat,approach,neg,approach-neg,1,1,708.699999999837
sub-111,178,0,TRUE,right,avoid,neg,fungus6_crop.jpg,3,18,TRUE,177,1,843.2269,111,DON'T EAT                                    EAT,842.2748,824.1262,779.1037,left,1,left,left,not_eat,not_eat,approach,neg,approach-neg,1,1,952.0999999999767
sub-111,179,0,FALSE,right,approach,neg,insect23_crop.jpg,3,18,TRUE,178,2,845.2443,111,DON'T EAT                                    EAT,844.2932,824.1262,779.1037,left,2,right,right,eat,eat,approach,neg,approach-neg,1,1,951.0999999999767
sub-111,180,0,FALSE,right,approach,neg,insect14_crop.jpg,3,18,TRUE,179,2,847.6671,111,DON'T EAT                                    EAT,846.31146,824.1262,779.1037,left,2,right,right,eat,eat,approach,neg,approach-neg,1,1,1355.640000000014
sub-111,181,2,FALSE,right,approach,pos,cake36_crop.jpg,3,19,TRUE,180,2,864.17163,111,DON'T EAT                                    EAT,862.8253,858.80524,779.1037,left,2,right,right,eat,eat,approach,pos,approach-pos,1,1,1346.3300000000745
sub-111,182,2,FALSE,right,approach,pos,cake17_crop.jpg,3,19,TRUE,181,2,865.69946,111,DON'T EAT                                    EAT,864.84357,858.80524,779.1037,left,2,right,right,eat,eat,approach,pos,approach-pos,1,1,855.8900000001304
sub-111,183,2,FALSE,right,approach,pos,cake35_crop.jpg,3,19,TRUE,182,2,867.6863,111,DON'T EAT                                    EAT,866.8619,858.80524,779.1037,left,2,right,right,eat,eat,approach,pos,approach-pos,1,1,824.3999999999069
sub-111,184,2,FALSE,right,approach,pos,cake5_crop.jpg,3,19,TRUE,183,2,869.5991,111,DON'T EAT                                    EAT,868.8803,858.80524,779.1037,left,2,right,right,eat,eat,approach,pos,approach-pos,1,1,718.7999999999302
sub-111,185,2,FALSE,right,approach,pos,cake28_crop.jpg,3,19,TRUE,184,2,871.5735,111,DON'T EAT                                    EAT,870.8987,858.80524,779.1037,left,2,right,right,eat,eat,approach,pos,approach-pos,1,1,674.8000000000466
sub-111,186,2,TRUE,right,avoid,neg,fungus13_crop.jpg,3,19,TRUE,185,1,873.91656,111,DON'T EAT                                    EAT,872.91693,858.80524,779.1037,left,1,left,left,not_eat,not_eat,approach,pos,approach-pos,1,1,999.6300000001211
sub-111,187,2,FALSE,right,approach,pos,cake39_crop.jpg,3,19,TRUE,186,2,875.9453,111,DON'T EAT                                    EAT,874.93536,858.80524,779.1037,left,2,right,right,eat,eat,approach,pos,approach-pos,1,1,1009.9399999999441
sub-111,188,2,FALSE,right,approach,pos,cake10_crop.jpg,3,19,TRUE,187,2,877.9013,111,DON'T EAT                                    EAT,876.9537,858.80524,779.1037,left,2,right,right,eat,eat,approach,pos,approach-pos,1,1,947.5999999999767
sub-111,189,2,FALSE,right,approach,pos,cake24_crop.jpg,3,19,TRUE,188,2,879.7549,111,DON'T EAT                                    EAT,878.97174,858.80524,779.1037,left,2,right,right,eat,eat,approach,pos,approach-pos,1,1,783.1600000000326
sub-111,190,2,TRUE,right,avoid,pos,meat40_crop.jpg,3,19,TRUE,189,1,881.90106,111,DON'T EAT                                    EAT,880.9903,858.80524,779.1037,left,1,left,left,not_eat,not_eat,approach,pos,approach-pos,1,1,910.7600000000093
sub-111,191,0,FALSE,left,avoid,pos,meat8_crop.jpg,3,20,TRUE,190,1,900.2816,111,DON'T EAT                                    EAT,899.339,895.3189,779.1037,left,1,left,left,not_eat,not_eat,avoid,pos,avoid-pos,1,1,942.5999999999767
sub-111,192,0,FALSE,left,avoid,pos,meat24_crop.jpg,3,20,TRUE,191,1,902.22736,111,DON'T EAT                                    EAT,901.3573,895.3189,779.1037,left,1,left,left,not_eat,not_eat,avoid,pos,avoid-pos,1,1,870.0599999999395
sub-111,193,0,FALSE,left,avoid,pos,meat10_crop.jpg,3,20,TRUE,192,1,904.24506,111,DON'T EAT                                    EAT,903.3756,895.3189,779.1037,left,1,left,left,not_eat,not_eat,avoid,pos,avoid-pos,1,1,869.4599999999627
sub-111,194,0,FALSE,left,avoid,pos,meat23_crop.jpg,3,20,TRUE,193,1,906.5114,111,DON'T EAT                                    EAT,905.39374,895.3189,779.1037,left,1,left,left,not_eat,not_eat,avoid,pos,avoid-pos,1,1,1117.6600000000326
sub-111,195,0,FALSE,left,avoid,pos,meat17_crop.jpg,3,20,TRUE,194,1,908.3505,111,DON'T EAT                                    EAT,907.41174,895.3189,779.1037,left,1,left,left,not_eat,not_eat,avoid,pos,avoid-pos,1,1,938.7600000000093
sub-111,196,0,TRUE,left,approach,neg,insect33_crop.jpg,3,20,TRUE,195,2,910.55023,111,DON'T EAT                                    EAT,909.4303,895.3189,779.1037,left,2,right,right,eat,eat,avoid,pos,avoid-pos,1,1,1119.9300000000512
sub-111,197,0,FALSE,left,avoid,pos,meat40_crop.jpg,3,20,TRUE,196,1,912.25055,111,DON'T EAT                                    EAT,911.4489,895.3189,779.1037,left,1,left,left,not_eat,not_eat,avoid,pos,avoid-pos,1,1,801.6499999999069
sub-111,198,0,FALSE,left,avoid,pos,meat38_crop.jpg,3,20,TRUE,197,1,914.3171,111,DON'T EAT                                    EAT,913.46747,895.3189,779.1037,left,1,left,left,not_eat,not_eat,avoid,pos,avoid-pos,1,1,849.6299999998882
sub-111,199,0,TRUE,left,approach,pos,cake7_crop.jpg,3,20,TRUE,198,2,916.6622,111,DON'T EAT                                    EAT,915.4858,895.3189,779.1037,left,2,right,right,eat,eat,avoid,pos,avoid-pos,1,1,1176.3999999999069
sub-111,200,0,FALSE,left,avoid,pos,meat3_crop.jpg,3,20,TRUE,199,1,919.2735,111,DON'T EAT                                    EAT,917.50397,895.3189,779.1037,left,1,left,left,not_eat,not_eat,avoid,pos,avoid-pos,1,1,1769.530000000028
sub-111,201,3,FALSE,right,avoid,neg,fungus16_crop.jpg,3,21,TRUE,200,1,936.58026,111,DON'T EAT                                    EAT,935.469,931.449,779.1037,left,1,left,left,not_eat,not_eat,avoid,neg,avoid-neg,1,1,1111.2600000000093
sub-111,202,3,FALSE,right,avoid,neg,fungus8_crop.jpg,3,21,TRUE,201,1,938.3123,111,DON'T EAT                                    EAT,937.4872,931.449,779.1037,left,1,left,left,not_eat,not_eat,avoid,neg,avoid-neg,1,1,825.0999999999767
sub-111,203,3,TRUE,right,approach,pos,cake3_crop.jpg,3,21,TRUE,202,2,940.5439,111,DON'T EAT                                    EAT,939.50555,931.449,779.1037,left,2,right,right,eat,eat,avoid,neg,avoid-neg,1,1,1038.3500000000931
sub-111,204,3,FALSE,right,avoid,neg,fungus33_crop.jpg,3,21,TRUE,203,1,942.41486,111,DON'T EAT                                    EAT,941.52386,931.449,779.1037,left,1,left,left,not_eat,not_eat,avoid,neg,avoid-neg,1,1,891
sub-111,205,3,TRUE,right,approach,neg,insect11_crop.jpg,3,21,TRUE,204,2,944.53076,111,DON'T EAT                                    EAT,943.54224,931.449,779.1037,left,2,right,right,eat,eat,avoid,neg,avoid-neg,1,1,988.5200000000186
sub-111,206,3,FALSE,right,avoid,neg,fungus28_crop.jpg,3,21,TRUE,205,1,946.4476,111,DON'T EAT                                    EAT,945.5605,931.449,779.1037,left,1,left,left,not_eat,not_eat,avoid,neg,avoid-neg,1,1,887.0999999999767
sub-111,207,3,FALSE,right,avoid,neg,fungus20_crop.jpg,3,21,TRUE,206,1,948.52313,111,DON'T EAT                                    EAT,947.5789,931.449,779.1037,left,1,left,left,not_eat,not_eat,avoid,neg,avoid-neg,1,1,944.2299999999814
sub-111,208,3,FALSE,right,avoid,neg,fungus31_crop.jpg,3,21,TRUE,207,1,950.5492,111,DON'T EAT                                    EAT,949.5972,931.449,779.1037,left,1,left,left,not_eat,not_eat,avoid,neg,avoid-neg,1,1,952
sub-111,209,3,FALSE,right,avoid,neg,fungus17_crop.jpg,3,21,TRUE,208,1,952.6933,111,DON'T EAT                                    EAT,951.61566,931.449,779.1037,left,1,left,left,not_eat,not_eat,avoid,neg,avoid-neg,1,1,1077.640000000014
sub-111,210,3,FALSE,right,avoid,neg,fungus38_crop.jpg,3,21,TRUE,209,1,954.5692,111,DON'T EAT                                    EAT,953.634,931.449,779.1037,left,1,left,left,not_eat,not_eat,avoid,neg,avoid-neg,1,1,935.2000000000698
sub-111,211,2,FALSE,left,approach,neg,insect5_crop.jpg,3,22,TRUE,210,2,972.63025,111,DON'T EAT                                    EAT,971.6489,967.6291,779.1037,left,2,right,right,eat,eat,approach,neg,approach-neg,1,1,981.3499999999767
sub-111,212,2,FALSE,left,approach,neg,insect16_crop.jpg,3,22,TRUE,211,2,974.60095,111,DON'T EAT                                    EAT,973.6674,967.6291,779.1037,left,2,right,right,eat,eat,approach,neg,approach-neg,1,1,933.5499999999302
sub-111,213,2,FALSE,left,approach,neg,insect22_crop.jpg,3,22,TRUE,212,2,976.4711,111,DON'T EAT                                    EAT,975.6856,967.6291,779.1037,left,2,right,right,eat,eat,approach,neg,approach-neg,1,1,785.5
sub-111,214,2,TRUE,left,avoid,pos,meat31_crop.jpg,3,22,TRUE,213,1,978.63434,111,DON'T EAT                                    EAT,977.70386,967.6291,779.1037,left,1,left,left,not_eat,not_eat,approach,neg,approach-neg,1,1,930.4799999999814
sub-111,215,2,TRUE,left,avoid,neg,fungus37_crop.jpg,3,22,TRUE,214,1,980.64026,111,DON'T EAT                                    EAT,979.7222,967.6291,779.1037,left,1,left,left,not_eat,not_eat,approach,neg,approach-neg,1,1,918.0599999999395
sub-111,216,2,FALSE,left,approach,neg,insect8_crop.jpg,3,22,TRUE,215,2,982.74744,111,DON'T EAT                                    EAT,981.74036,967.6291,779.1037,left,2,right,right,eat,eat,approach,neg,approach-neg,1,1,1007.0799999999581
sub-111,217,2,FALSE,left,approach,neg,insect15_crop.jpg,3,22,TRUE,216,2,984.9108,111,DON'T EAT                                    EAT,983.7591,967.6291,779.1037,left,2,right,right,eat,eat,approach,neg,approach-neg,1,1,1151.7000000000698
sub-111,218,2,FALSE,left,approach,neg,insect39_crop.jpg,3,22,TRUE,217,2,986.6235,111,DON'T EAT                                    EAT,985.7773,967.6291,779.1037,left,2,right,right,eat,eat,approach,neg,approach-neg,1,1,846.2000000000698
sub-111,219,2,FALSE,left,approach,neg,insect13_crop.jpg,3,22,TRUE,218,2,988.7355,111,DON'T EAT                                    EAT,987.7957,967.6291,779.1037,left,2,right,right,eat,eat,approach,neg,approach-neg,1,1,939.8000000000466
sub-111,220,2,FALSE,left,approach,neg,insect12_crop.jpg,3,22,TRUE,219,2,990.4409,111,DON'T EAT                                    EAT,989.814,967.6291,779.1037,left,2,right,right,eat,eat,approach,neg,approach-neg,1,1,626.9000000000233
sub-111,221,1,FALSE,right,avoid,pos,meat30_crop.jpg,3,23,TRUE,220,1,1010.0807,111,DON'T EAT                                    EAT,1008.7798,1004.7597,779.1037,left,1,left,left,not_eat,not_eat,avoid,pos,avoid-pos,1,1,1300.8999999999069
sub-111,222,1,FALSE,right,avoid,pos,meat12_crop.jpg,3,23,TRUE,221,1,1011.95953,111,DON'T EAT                                    EAT,1010.7978,1004.7597,779.1037,left,1,left,left,not_eat,not_eat,avoid,pos,avoid-pos,1,1,1161.7299999999814
sub-111,223,1,TRUE,right,approach,pos,cake33_crop.jpg,3,23,TRUE,222,2,1013.718,111,DON'T EAT                                    EAT,1012.8164,1004.7597,779.1037,left,2,right,right,eat,eat,avoid,pos,avoid-pos,1,1,901.5999999999767
sub-111,224,1,FALSE,right,avoid,pos,meat20_crop.jpg,3,23,TRUE,223,1,1015.64185,111,DON'T EAT                                    EAT,1014.8348,1004.7597,779.1037,left,1,left,left,not_eat,not_eat,avoid,pos,avoid-pos,1,1,807.0500000000466
sub-111,225,1,FALSE,right,avoid,pos,meat16_crop.jpg,3,23,TRUE,224,1,1017.97473,111,DON'T EAT                                    EAT,1016.85284,1004.7597,779.1037,left,1,left,left,not_eat,not_eat,avoid,pos,avoid-pos,1,1,1121.890000000014
sub-111,226,1,TRUE,right,approach,neg,insect7_crop.jpg,3,23,TRUE,225,2,1019.637,111,DON'T EAT                                    EAT,1018.8714,1004.7597,779.1037,left,2,right,right,eat,eat,avoid,pos,avoid-pos,1,1,765.5999999999767
sub-111,227,1,FALSE,right,avoid,pos,meat6_crop.jpg,3,23,TRUE,226,1,1021.94916,111,DON'T EAT                                    EAT,1020.8898,1004.7597,779.1037,left,1,left,left,not_eat,not_eat,avoid,pos,avoid-pos,1,1,1059.359999999986
sub-111,228,1,FALSE,right,avoid,pos,meat17_crop.jpg,3,23,TRUE,227,1,1023.8474,111,DON'T EAT                                    EAT,1022.90796,1004.7597,779.1037,left,1,left,left,not_eat,not_eat,avoid,pos,avoid-pos,1,1,939.4400000000605
sub-111,229,1,FALSE,right,avoid,pos,meat31_crop.jpg,3,23,TRUE,228,1,1025.9005,111,DON'T EAT                                    EAT,1024.9265,1004.7597,779.1037,left,1,left,left,not_eat,not_eat,avoid,pos,avoid-pos,1,1,974
sub-111,230,1,FALSE,right,avoid,pos,meat5_crop.jpg,3,23,TRUE,229,1,1027.7611,111,DON'T EAT                                    EAT,1026.9448,1004.7597,779.1037,left,1,left,left,not_eat,not_eat,avoid,pos,avoid-pos,1,1,816.3000000000466
sub-111,231,3,FALSE,right,avoid,pos,meat27_crop.jpg,3,24,TRUE,230,1,1045.5725,111,DON'T EAT                                    EAT,1044.6929,1040.6729,779.1037,left,1,left,left,not_eat,not_eat,avoid,pos,avoid-pos,1,1,879.5999999999767
sub-111,232,3,FALSE,right,avoid,pos,meat38_crop.jpg,3,24,TRUE,231,1,1047.5255,111,DON'T EAT                                    EAT,1046.7112,1040.6729,779.1037,left,1,left,left,not_eat,not_eat,avoid,pos,avoid-pos,1,1,814.3000000000466
sub-111,233,3,FALSE,right,avoid,pos,meat11_crop.jpg,3,24,TRUE,232,1,1049.4902,111,DON'T EAT                                    EAT,1048.7295,1040.6729,779.1037,left,1,left,left,not_eat,not_eat,avoid,pos,avoid-pos,1,1,760.6999999999534
sub-111,234,3,TRUE,right,approach,neg,insect1_crop.jpg,3,24,TRUE,233,2,1052.1455,111,DON'T EAT                                    EAT,1050.7479,1040.6729,779.1037,left,2,right,right,eat,eat,avoid,pos,avoid-pos,1,1,1397.5999999998603
sub-111,235,3,FALSE,right,avoid,pos,meat4_crop.jpg,3,24,TRUE,234,2,1054.1293,111,DON'T EAT                                    EAT,1052.7662,1040.6729,779.1037,left,2,right,right,eat,eat,avoid,pos,avoid-pos,0,0,1363.1000000000931
sub-111,236,3,TRUE,right,approach,pos,cake7_crop.jpg,3,24,TRUE,235,2,1055.894,111,DON'T EAT                                    EAT,1054.7847,1040.6729,779.1037,left,2,right,right,eat,eat,avoid,pos,avoid-pos,1,1,1109.3000000000466
sub-111,237,3,FALSE,right,avoid,pos,meat36_crop.jpg,3,24,TRUE,236,1,1057.7556,111,DON'T EAT                                    EAT,1056.8027,1040.6729,779.1037,left,1,left,left,not_eat,not_eat,avoid,pos,avoid-pos,1,1,952.8999999999069
sub-111,238,3,FALSE,right,avoid,pos,meat10_crop.jpg,3,24,TRUE,237,1,1059.88,111,DON'T EAT                                    EAT,1058.8212,1040.6729,779.1037,left,1,left,left,not_eat,not_eat,avoid,pos,avoid-pos,1,1,1058.7999999998137
sub-111,239,3,FALSE,right,avoid,pos,meat23_crop.jpg,3,24,TRUE,238,1,1061.8346,111,DON'T EAT                                    EAT,1060.8397,1040.6729,779.1037,left,1,left,left,not_eat,not_eat,avoid,pos,avoid-pos,1,1,994.8999999999069
sub-111,240,3,FALSE,right,avoid,pos,meat24_crop.jpg,3,24,TRUE,239,1,1063.6942,111,DON'T EAT                                    EAT,1062.8582,1040.6729,779.1037,left,1,left,left,not_eat,not_eat,avoid,pos,avoid-pos,1,1,836
sub-111,241,3,TRUE,left,avoid,neg,fungus25_crop.jpg,4,25,TRUE,240,1,1159.3558,111,DON'T EAT                                    EAT,1158.1371,1154.1171,1142.7968,right,1,left,left,not_eat,not_eat,approach,pos,approach-pos,1,1,1218.7000000001863
sub-111,242,3,FALSE,left,approach,pos,cake15_crop.jpg,4,25,TRUE,241,2,1161.3099,111,DON'T EAT                                    EAT,1160.1554,1154.1171,1142.7968,right,2,right,right,eat,eat,approach,pos,approach-pos,1,1,1154.4999999997672
sub-111,243,3,FALSE,left,approach,pos,cake33_crop.jpg,4,25,TRUE,242,2,1163.1361,111,DON'T EAT                                    EAT,1162.1738,1154.1171,1142.7968,right,2,right,right,eat,eat,approach,pos,approach-pos,1,1,962.2999999998137
sub-111,244,3,FALSE,left,approach,pos,cake9_crop.jpg,4,25,TRUE,243,2,1165.0176,111,DON'T EAT                                    EAT,1164.1915,1154.1171,1142.7968,right,2,right,right,eat,eat,approach,pos,approach-pos,1,1,826.0999999998603
sub-111,245,3,FALSE,left,approach,pos,cake11_crop.jpg,4,25,TRUE,244,2,1167.0702000000001,111,DON'T EAT                                    EAT,1166.2103,1154.1171,1142.7968,right,2,right,right,eat,eat,approach,pos,approach-pos,1,1,859.9000000001397
sub-111,246,3,FALSE,left,approach,pos,cake14_crop.jpg,4,25,TRUE,245,2,1169.0006,111,DON'T EAT                                    EAT,1168.2289,1154.1171,1142.7968,right,2,right,right,eat,eat,approach,pos,approach-pos,1,1,771.6999999999534
sub-111,247,3,FALSE,left,approach,pos,cake2_crop.jpg,4,25,TRUE,246,2,1171.0421,111,DON'T EAT                                    EAT,1170.2471,1154.1171,1142.7968,right,2,right,right,eat,eat,approach,pos,approach-pos,1,1,794.9999999997672
sub-111,248,3,FALSE,left,approach,pos,cake19_crop.jpg,4,25,TRUE,247,2,1173.269,111,DON'T EAT                                    EAT,1172.2655,1154.1171,1142.7968,right,2,right,right,eat,eat,approach,pos,approach-pos,1,1,1003.5
sub-111,249,3,TRUE,left,avoid,pos,meat26_crop.jpg,4,25,TRUE,248,1,1175.3108,111,DON'T EAT                                    EAT,1174.2837,1154.1171,1142.7968,right,1,left,left,not_eat,not_eat,approach,pos,approach-pos,1,1,1027.1000000000931
sub-111,250,3,FALSE,left,approach,pos,cake12_crop.jpg,4,25,TRUE,249,2,1177.413,111,DON'T EAT                                    EAT,1176.3021,1154.1171,1142.7968,right,2,right,right,eat,eat,approach,pos,approach-pos,1,1,1110.8999999999069
sub-111,251,0,FALSE,left,approach,pos,cake16_crop.jpg,4,26,TRUE,250,2,1196.1956,111,DON'T EAT                                    EAT,1195.2512,1191.231,1142.7968,right,2,right,right,eat,eat,approach,pos,approach-pos,1,1,944.4000000001397
sub-111,252,0,FALSE,left,approach,pos,cake17_crop.jpg,4,26,TRUE,251,2,1197.9474,111,DON'T EAT                                    EAT,1197.2694,1191.231,1142.7968,right,2,right,right,eat,eat,approach,pos,approach-pos,1,1,678
sub-111,253,0,TRUE,left,avoid,neg,fungus23_crop.jpg,4,26,TRUE,252,1,1200.1345,111,DON'T EAT                                    EAT,1199.288,1191.231,1142.7968,right,1,left,left,not_eat,not_eat,approach,pos,approach-pos,1,1,846.5
sub-111,254,0,FALSE,left,approach,pos,cake36_crop.jpg,4,26,TRUE,253,2,1202.1079,111,DON'T EAT                                    EAT,1201.3063,1191.231,1142.7968,right,2,right,right,eat,eat,approach,pos,approach-pos,1,1,801.5999999998603
sub-111,255,0,TRUE,left,avoid,pos,meat5_crop.jpg,4,26,TRUE,254,1,1204.2058,111,DON'T EAT                                    EAT,1203.3246,1191.231,1142.7968,right,1,left,left,not_eat,not_eat,approach,pos,approach-pos,1,1,881.2000000001863
sub-111,256,0,FALSE,left,approach,pos,cake20_crop.jpg,4,26,TRUE,255,2,1206.6735,111,DON'T EAT                                    EAT,1205.3429,1191.231,1142.7968,right,2,right,right,eat,eat,approach,pos,approach-pos,1,1,1330.5999999998603
sub-111,257,0,FALSE,left,approach,pos,cake40_crop.jpg,4,26,TRUE,256,2,1208.1024,111,DON'T EAT                                    EAT,1207.3612,1191.231,1142.7968,right,2,right,right,eat,eat,approach,pos,approach-pos,1,1,741.1999999999534
sub-111,258,0,FALSE,left,approach,pos,cake3_crop.jpg,4,26,TRUE,257,2,1210.041,111,DON'T EAT                                    EAT,1209.3795,1191.231,1142.7968,right,2,right,right,eat,eat,approach,pos,approach-pos,1,1,661.5
sub-111,259,0,FALSE,left,approach,pos,cake8_crop.jpg,4,26,TRUE,258,2,1212.035,111,DON'T EAT                                    EAT,1211.3981,1191.231,1142.7968,right,2,right,right,eat,eat,approach,pos,approach-pos,1,1,636.8999999999069
sub-111,260,0,FALSE,left,approach,pos,cake39_crop.jpg,4,26,TRUE,259,2,1214.1477,111,DON'T EAT                                    EAT,1213.4164,1191.231,1142.7968,right,2,right,right,eat,eat,approach,pos,approach-pos,1,1,731.2999999998137
sub-111,261,3,FALSE,left,avoid,pos,meat13_crop.jpg,4,27,TRUE,260,1,1231.6311,111,DON'T EAT                                    EAT,1230.6139,1226.5939,1142.7968,right,1,left,left,not_eat,not_eat,avoid,pos,avoid-pos,1,1,1017.1999999999534
sub-111,262,3,FALSE,left,avoid,pos,meat20_crop.jpg,4,27,TRUE,261,1,1233.4874,111,DON'T EAT                                    EAT,1232.6322,1226.5939,1142.7968,right,1,left,left,not_eat,not_eat,avoid,pos,avoid-pos,1,1,855.1999999999534
sub-111,263,3,FALSE,left,avoid,pos,meat18_crop.jpg,4,27,TRUE,262,1,1235.4028,111,DON'T EAT                                    EAT,1234.6501,1226.5939,1142.7968,right,1,left,left,not_eat,not_eat,avoid,pos,avoid-pos,1,1,752.6999999999534
sub-111,264,3,FALSE,left,avoid,pos,meat15_crop.jpg,4,27,TRUE,263,1,1237.8738,111,DON'T EAT                                    EAT,1236.669,1226.5939,1142.7968,right,1,left,left,not_eat,not_eat,avoid,pos,avoid-pos,1,1,1204.8000000000466
sub-111,265,3,FALSE,left,avoid,pos,meat16_crop.jpg,4,27,TRUE,264,1,1239.4214,111,DON'T EAT                                    EAT,1238.6873,1226.5939,1142.7968,right,1,left,left,not_eat,not_eat,avoid,pos,avoid-pos,1,1,734.0999999998603
sub-111,266,3,TRUE,left,approach,pos,cake31_crop.jpg,4,27,TRUE,265,2,1242.0192,111,DON'T EAT                                    EAT,1240.7057,1226.5939,1142.7968,right,2,right,right,eat,eat,avoid,pos,avoid-pos,1,1,1313.5
sub-111,267,3,FALSE,left,avoid,pos,meat39_crop.jpg,4,27,TRUE,266,1,1243.7622,111,DON'T EAT                                    EAT,1242.724,1226.5939,1142.7968,right,1,left,left,not_eat,not_eat,avoid,pos,avoid-pos,1,1,1038.1999999999534
sub-111,268,3,TRUE,left,approach,neg,insect7_crop.jpg,4,27,TRUE,267,2,1245.5642,111,DON'T EAT                                    EAT,1244.7423,1226.5939,1142.7968,right,2,right,right,eat,eat,avoid,pos,avoid-pos,1,1,821.9000000001397
sub-111,269,3,FALSE,left,avoid,pos,meat29_crop.jpg,4,27,TRUE,268,1,1247.7651,111,DON'T EAT                                    EAT,1246.7604,1226.5939,1142.7968,right,1,left,left,not_eat,not_eat,avoid,pos,avoid-pos,1,1,1004.7000000001863
sub-111,270,3,FALSE,left,avoid,pos,meat7_crop.jpg,4,27,TRUE,269,1,1249.6974,111,DON'T EAT                                    EAT,1248.779,1226.5939,1142.7968,right,1,left,left,not_eat,not_eat,avoid,pos,avoid-pos,1,1,918.3999999999069
sub-111,271,0,FALSE,right,approach,pos,cake30_crop.jpg,4,28,TRUE,270,2,1268.6125,111,DON'T EAT                                    EAT,1267.7448,1263.7247,1142.7968,right,2,right,right,eat,eat,approach,pos,approach-pos,1,1,867.6999999999534
sub-111,272,0,TRUE,right,avoid,pos,meat3_crop.jpg,4,28,TRUE,271,1,1270.6423,111,DON'T EAT                                    EAT,1269.7631,1263.7247,1142.7968,right,1,left,left,not_eat,not_eat,approach,pos,approach-pos,1,1,879.2000000001863
sub-111,273,0,FALSE,right,approach,pos,cake34_crop.jpg,4,28,TRUE,272,2,1272.8613,111,DON'T EAT                                    EAT,1271.7815,1263.7247,1142.7968,right,2,right,right,eat,eat,approach,pos,approach-pos,1,1,1079.8000000000466
sub-111,274,0,FALSE,right,approach,pos,cake19_crop.jpg,4,28,TRUE,273,2,1274.9031,111,DON'T EAT                                    EAT,1273.7997,1263.7247,1142.7968,right,2,right,right,eat,eat,approach,pos,approach-pos,1,1,1103.4000000001397
sub-111,275,0,FALSE,right,approach,pos,cake9_crop.jpg,4,28,TRUE,274,2,1276.7173,111,DON'T EAT                                    EAT,1275.8181,1263.7247,1142.7968,right,2,right,right,eat,eat,approach,pos,approach-pos,1,1,899.2000000001863
sub-111,276,0,TRUE,right,avoid,neg,fungus10_crop.jpg,4,28,TRUE,275,1,1278.6942,111,DON'T EAT                                    EAT,1277.8362,1263.7247,1142.7968,right,1,left,left,not_eat,not_eat,approach,pos,approach-pos,1,1,858
sub-111,277,0,FALSE,right,approach,pos,cake31_crop.jpg,4,28,TRUE,276,2,1281.0493,111,DON'T EAT                                    EAT,1279.8547,1263.7247,1142.7968,right,2,right,right,eat,eat,approach,pos,approach-pos,1,1,1194.5999999996275
sub-111,278,0,FALSE,right,approach,pos,cake20_crop.jpg,4,28,TRUE,277,2,1282.7307,111,DON'T EAT                                    EAT,1281.873,1263.7247,1142.7968,right,2,right,right,eat,eat,approach,pos,approach-pos,1,1,857.7000000001863
sub-111,279,0,FALSE,right,approach,pos,cake12_crop.jpg,4,28,TRUE,278,2,1284.6974,111,DON'T EAT                                    EAT,1283.8911,1263.7247,1142.7968,right,2,right,right,eat,eat,approach,pos,approach-pos,1,1,806.2999999998137
sub-111,280,0,FALSE,right,approach,pos,cake2_crop.jpg,4,28,TRUE,279,2,1286.6492,111,DON'T EAT                                    EAT,1285.9099,1263.7247,1142.7968,right,2,right,right,eat,eat,approach,pos,approach-pos,1,1,739.2999999998137
sub-111,281,2,FALSE,right,avoid,pos,meat9_crop.jpg,4,29,TRUE,280,1,1303.913,111,DON'T EAT                                    EAT,1302.8572,1298.8369,1142.7968,right,1,left,left,not_eat,not_eat,avoid,pos,avoid-pos,1,1,1055.8000000000466
sub-111,282,2,FALSE,right,avoid,pos,meat33_crop.jpg,4,29,TRUE,281,1,1305.7441,111,DON'T EAT                                    EAT,1304.8755,1298.8369,1142.7968,right,1,left,left,not_eat,not_eat,avoid,pos,avoid-pos,1,1,868.5999999998603
sub-111,283,2,FALSE,right,avoid,pos,meat39_crop.jpg,4,29,TRUE,282,1,1307.9226,111,DON'T EAT                                    EAT,1306.8938,1298.8369,1142.7968,right,1,left,left,not_eat,not_eat,avoid,pos,avoid-pos,1,1,1028.8000000000466
sub-111,284,2,FALSE,right,avoid,pos,meat14_crop.jpg,4,29,TRUE,283,1,1309.8016,111,DON'T EAT                                    EAT,1308.9122,1298.8369,1142.7968,right,1,left,left,not_eat,not_eat,avoid,pos,avoid-pos,1,1,889.4000000001397
sub-111,285,2,FALSE,right,avoid,pos,meat35_crop.jpg,4,29,TRUE,284,1,1311.7703,111,DON'T EAT                                    EAT,1310.9304,1298.8369,1142.7968,right,1,left,left,not_eat,not_eat,avoid,pos,avoid-pos,1,1,839.8999999999069
sub-111,286,2,FALSE,right,avoid,pos,meat8_crop.jpg,4,29,TRUE,285,1,1313.8031,111,DON'T EAT                                    EAT,1312.9487,1298.8369,1142.7968,right,1,left,left,not_eat,not_eat,avoid,pos,avoid-pos,1,1,854.4000000001397
sub-111,287,2,FALSE,right,avoid,pos,meat22_crop.jpg,4,29,TRUE,286,1,1315.8138,111,DON'T EAT                                    EAT,1314.9675,1298.8369,1142.7968,right,1,left,left,not_eat,not_eat,avoid,pos,avoid-pos,1,1,846.2999999998137
sub-111,288,2,TRUE,right,approach,pos,cake37_crop.jpg,4,29,TRUE,287,2,1317.8326,111,DON'T EAT                                    EAT,1316.9857,1298.8369,1142.7968,right,2,right,right,eat,eat,avoid,pos,avoid-pos,1,1,846.8999999999069
sub-111,289,2,FALSE,right,avoid,pos,meat13_crop.jpg,4,29,TRUE,288,1,1319.8502,111,DON'T EAT                                    EAT,1319.0039,1298.8369,1142.7968,right,1,left,left,not_eat,not_eat,avoid,pos,avoid-pos,1,1,846.3000000002794
sub-111,290,2,TRUE,right,approach,neg,insect36_crop.jpg,4,29,TRUE,289,2,1322.5236,111,DON'T EAT                                    EAT,1321.0222,1298.8369,1142.7968,right,2,right,right,eat,eat,avoid,pos,avoid-pos,1,1,1501.3999999999069
sub-111,291,1,TRUE,left,avoid,neg,fungus33_crop.jpg,4,30,TRUE,290,1,1341.315,111,DON'T EAT                                    EAT,1340.4381,1336.4181,1142.7968,right,1,left,left,not_eat,not_eat,approach,neg,approach-neg,1,1,876.8999999999069
sub-111,292,1,FALSE,left,approach,neg,insect27_crop.jpg,4,30,TRUE,291,2,1343.4539,111,DON'T EAT                                    EAT,1342.4568,1336.4181,1142.7968,right,2,right,right,eat,eat,approach,neg,approach-neg,1,1,997.1000000000931
sub-111,293,1,FALSE,left,approach,neg,insect25_crop.jpg,4,30,TRUE,292,2,1345.288,111,DON'T EAT                                    EAT,1344.4751,1336.4181,1142.7968,right,2,right,right,eat,eat,approach,neg,approach-neg,1,1,812.8999999999069
sub-111,294,1,TRUE,left,avoid,pos,meat27_crop.jpg,4,30,TRUE,293,1,1347.4357,111,DON'T EAT                                    EAT,1346.4933,1336.4181,1142.7968,right,1,left,left,not_eat,not_eat,approach,neg,approach-neg,1,1,942.3999999999069
sub-111,295,1,FALSE,left,approach,neg,insect4_crop.jpg,4,30,TRUE,294,2,1349.3027,111,DON'T EAT                                    EAT,1348.5117,1336.4181,1142.7968,right,2,right,right,eat,eat,approach,neg,approach-neg,1,1,791
sub-111,296,1,FALSE,left,approach,neg,insect26_crop.jpg,4,30,TRUE,295,2,1351.3018,111,DON'T EAT                                    EAT,1350.5302,1336.4181,1142.7968,right,2,right,right,eat,eat,approach,neg,approach-neg,1,1,771.6000000000931
sub-111,297,1,FALSE,left,approach,neg,insect6_crop.jpg,4,30,TRUE,296,2,1353.2562,111,DON'T EAT                                    EAT,1352.5482,1336.4181,1142.7968,right,2,right,right,eat,eat,approach,neg,approach-neg,1,1,708
sub-111,298,1,FALSE,left,approach,neg,insect14_crop.jpg,4,30,TRUE,297,2,1355.2898,111,DON'T EAT                                    EAT,1354.5669,1336.4181,1142.7968,right,2,right,right,eat,eat,approach,neg,approach-neg,1,1,722.8999999999069
sub-111,299,1,FALSE,left,approach,neg,insect9_crop.jpg,4,30,TRUE,298,2,1357.3575,111,DON'T EAT                                    EAT,1356.5852,1336.4181,1142.7968,right,2,right,right,eat,eat,approach,neg,approach-neg,1,1,772.3000000000466
sub-111,300,1,FALSE,left,approach,neg,insect18_crop.jpg,4,30,TRUE,299,2,1359.3142,111,DON'T EAT                                    EAT,1358.6035,1336.4181,1142.7968,right,2,right,right,eat,eat,approach,neg,approach-neg,1,1,710.6999999999534
sub-111,301,2,TRUE,left,approach,neg,insect38_crop.jpg,4,31,TRUE,300,2,1378.465,111,DON'T EAT                                    EAT,1377.5859,1373.5659,1142.7968,right,2,right,right,eat,eat,avoid,neg,avoid-neg,1,1,879.0999999998603
sub-111,302,2,FALSE,left,avoid,neg,fungus13_crop.jpg,4,31,TRUE,301,1,1380.5027,111,DON'T EAT                                    EAT,1379.6044,1373.5659,1142.7968,right,1,left,left,not_eat,not_eat,avoid,neg,avoid-neg,1,1,898.3000000000466
sub-111,303,2,FALSE,left,avoid,neg,fungus27_crop.jpg,4,31,TRUE,302,1,1382.523,111,DON'T EAT                                    EAT,1381.6224,1373.5659,1142.7968,right,1,left,left,not_eat,not_eat,avoid,neg,avoid-neg,1,1,900.6000000000931
sub-111,304,2,FALSE,left,avoid,neg,fungus31_crop.jpg,4,31,TRUE,303,1,1384.5544,111,DON'T EAT                                    EAT,1383.641,1373.5659,1142.7968,right,1,left,left,not_eat,not_eat,avoid,neg,avoid-neg,1,1,913.3999999999069
sub-111,305,2,FALSE,left,avoid,neg,fungus20_crop.jpg,4,31,TRUE,304,1,1386.8914,111,DON'T EAT                                    EAT,1385.6593,1373.5659,1142.7968,right,1,left,left,not_eat,not_eat,avoid,neg,avoid-neg,1,1,1232.0999999998603
sub-111,306,2,FALSE,left,avoid,neg,fungus39_crop.jpg,4,31,TRUE,305,1,1388.694,111,DON'T EAT                                    EAT,1387.6777,1373.5659,1142.7968,right,1,left,left,not_eat,not_eat,avoid,neg,avoid-neg,1,1,1016.3000000000466
sub-111,307,2,FALSE,left,avoid,neg,fungus28_crop.jpg,4,31,TRUE,306,1,1390.6704,111,DON'T EAT                                    EAT,1389.696,1373.5659,1142.7968,right,1,left,left,not_eat,not_eat,avoid,neg,avoid-neg,1,1,974.3999999999069
sub-111,308,2,TRUE,left,approach,pos,cake37_crop.jpg,4,31,TRUE,307,2,1392.7314,111,DON'T EAT                                    EAT,1391.7137,1373.5659,1142.7968,right,2,right,right,eat,eat,avoid,neg,avoid-neg,1,1,1017.6999999999534
sub-111,309,2,FALSE,left,avoid,neg,fungus40_crop.jpg,4,31,TRUE,308,1,1394.7579,111,DON'T EAT                                    EAT,1393.7325,1373.5659,1142.7968,right,1,left,left,not_eat,not_eat,avoid,neg,avoid-neg,1,1,1025.4000000001397
sub-111,310,2,FALSE,left,avoid,neg,fungus9_crop.jpg,4,31,TRUE,309,1,1396.8401,111,DON'T EAT                                    EAT,1395.7509,1373.5659,1142.7968,right,1,left,left,not_eat,not_eat,avoid,neg,avoid-neg,1,1,1089.1999999999534
sub-111,311,0,FALSE,right,avoid,pos,meat26_crop.jpg,4,32,TRUE,310,1,1413.2399,111,DON'T EAT                                    EAT,1412.2646,1408.2445,1142.7968,right,1,left,left,not_eat,not_eat,avoid,pos,avoid-pos,1,1,975.3000000002794
sub-111,312,0,FALSE,right,avoid,pos,meat32_crop.jpg,4,32,TRUE,311,1,1415.1508,111,DON'T EAT                                    EAT,1414.2831,1408.2445,1142.7968,right,1,left,left,not_eat,not_eat,avoid,pos,avoid-pos,1,1,867.6999999997206
sub-111,313,0,TRUE,right,approach,neg,insect21_crop.jpg,4,32,TRUE,312,2,1417.5538,111,DON'T EAT                                    EAT,1416.3014,1408.2445,1142.7968,right,2,right,right,eat,eat,avoid,pos,avoid-pos,1,1,1252.399999999674
sub-111,314,0,FALSE,right,avoid,pos,meat18_crop.jpg,4,32,TRUE,313,1,1419.2921,111,DON'T EAT                                    EAT,1418.3196,1408.2445,1142.7968,right,1,left,left,not_eat,not_eat,avoid,pos,avoid-pos,1,1,972.4999999997672
sub-111,315,0,FALSE,right,avoid,pos,meat2_crop.jpg,4,32,TRUE,314,1,1421.27,111,DON'T EAT                                    EAT,1420.3379,1408.2445,1142.7968,right,1,left,left,not_eat,not_eat,avoid,pos,avoid-pos,1,1,932.1000000000931
sub-111,316,0,FALSE,right,avoid,pos,meat21_crop.jpg,4,32,TRUE,315,1,1423.355,111,DON'T EAT                                    EAT,1422.3564,1408.2445,1142.7968,right,1,left,left,not_eat,not_eat,avoid,pos,avoid-pos,1,1,998.6000000000931
sub-111,317,0,FALSE,right,avoid,pos,meat29_crop.jpg,4,32,TRUE,316,1,1425.1589,111,DON'T EAT                                    EAT,1424.3743,1408.2445,1142.7968,right,1,left,left,not_eat,not_eat,avoid,pos,avoid-pos,1,1,784.5999999998603
sub-111,318,0,TRUE,right,approach,pos,cake1_crop.jpg,4,32,TRUE,317,2,1427.5236,111,DON'T EAT                                    EAT,1426.3932,1408.2445,1142.7968,right,2,right,right,eat,eat,avoid,pos,avoid-pos,1,1,1130.4000000001397
sub-111,319,0,FALSE,right,avoid,pos,meat19_crop.jpg,4,32,TRUE,318,1,1429.8612,111,DON'T EAT                                    EAT,1428.4114,1408.2445,1142.7968,right,1,left,left,not_eat,not_eat,avoid,pos,avoid-pos,1,1,1449.8000000000466
sub-111,320,0,FALSE,right,avoid,pos,meat7_crop.jpg,4,32,TRUE,319,1,1431.3325,111,DON'T EAT                                    EAT,1430.4298,1408.2445,1142.7968,right,1,left,left,not_eat,not_eat,avoid,pos,avoid-pos,1,1,902.7000000001863
