TrialNumber,n_block,catch,hand,mot,val,stim_name,run_number,num_block,ran,order,Subject number,n_b,left_side_resp_label,trial_onset,blk_instr_onset,baseline_onset,response,RT
1,1,False,right,avoid,neg,fungus21_crop.jpg,1,1,1.0,0.0,20.0,1.0,EAT                                    DON'T EAT,2161.9575,2157.938,2144.0488,--,--
2,1,False,right,avoid,neg,fungus26_crop.jpg,1,1,1.0,1.0,20.0,1.0,EAT                                    DON'T EAT,2163.976,2157.938,2144.0488,--,--
3,1,True,right,approach,neg,insect5_crop.jpg,1,1,1.0,2.0,20.0,1.0,EAT                                    DON'T EAT,2165.9949,2157.938,2144.0488,1,2166.7185
4,1,True,right,approach,pos,cake40_crop.jpg,1,1,1.0,3.0,20.0,1.0,EAT                                    DON'T EAT,2168.0166,2157.938,2144.0488,1,2169.0093
5,1,False,right,avoid,neg,fungus39_crop.jpg,1,1,1.0,4.0,20.0,1.0,EAT                                    DON'T EAT,2170.0332,2157.938,2144.0488,--,--
6,1,False,right,avoid,neg,fungus28_crop.jpg,1,1,1.0,5.0,20.0,1.0,EAT                                    DON'T EAT,2172.0493,2157.938,2144.0488,--,--
7,1,False,right,avoid,neg,fungus20_crop.jpg,1,1,1.0,6.0,20.0,1.0,EAT                                    DON'T EAT,2174.068,2157.938,2144.0488,--,--
8,1,False,right,avoid,neg,fungus18_crop.jpg,1,1,1.0,7.0,20.0,1.0,EAT                                    DON'T EAT,2176.0862,2157.938,2144.0488,--,--
9,1,False,right,avoid,neg,fungus8_crop.jpg,1,1,1.0,8.0,20.0,1.0,EAT                                    DON'T EAT,2178.1045,2157.938,2144.0488,--,--
10,1,False,right,avoid,neg,fungus6_crop.jpg,1,1,1.0,9.0,20.0,1.0,EAT                                    DON'T EAT,2180.1233,2157.938,2144.0488,--,--
11,1,False,right,approach,pos,cake25_crop.jpg,1,2,1.0,10.0,20.0,2.0,EAT                                    DON'T EAT,2196.4363,2192.4329,2144.0488,1,2197.8545
12,1,False,right,approach,pos,cake34_crop.jpg,1,2,1.0,11.0,20.0,2.0,EAT                                    DON'T EAT,2198.455,2192.4329,2144.0488,1,2199.97
13,1,False,right,approach,pos,cake30_crop.jpg,1,2,1.0,12.0,20.0,2.0,EAT                                    DON'T EAT,2200.4734,2192.4329,2144.0488,1,2201.4038
14,1,False,right,approach,pos,cake36_crop.jpg,1,2,1.0,13.0,20.0,2.0,EAT                                    DON'T EAT,2202.4917,2192.4329,2144.0488,1,2203.1155
15,1,False,right,approach,pos,cake17_crop.jpg,1,2,1.0,14.0,20.0,2.0,EAT                                    DON'T EAT,2204.51,2192.4329,2144.0488,1,2205.008
16,1,True,right,avoid,neg,fungus35_crop.jpg,1,2,1.0,15.0,20.0,2.0,EAT                                    DON'T EAT,2206.5283,2192.4329,2144.0488,--,--
17,1,False,right,approach,pos,cake7_crop.jpg,1,2,1.0,16.0,20.0,2.0,EAT                                    DON'T EAT,2208.5469,2192.4329,2144.0488,1,2209.365
18,1,True,right,avoid,pos,meat16_crop.jpg,1,2,1.0,17.0,20.0,2.0,EAT                                    DON'T EAT,2210.565,2192.4329,2144.0488,--,--
19,1,False,right,approach,pos,cake13_crop.jpg,1,2,1.0,18.0,20.0,2.0,EAT                                    DON'T EAT,2212.5835,2192.4329,2144.0488,1,2213.6238
20,1,False,right,approach,pos,cake3_crop.jpg,1,2,1.0,19.0,20.0,2.0,EAT                                    DON'T EAT,2214.6018,2192.4329,2144.0488,1,2215.269
21,1,True,left,approach,pos,cake36_crop.jpg,1,3,1.0,20.0,20.0,3.0,EAT                                    DON'T EAT,2231.7158,2227.696,2144.0488,1,2232.371
22,1,True,left,approach,neg,insect13_crop.jpg,1,3,1.0,21.0,20.0,3.0,EAT                                    DON'T EAT,2233.7344,2227.696,2144.0488,1,2234.6873
23,1,False,left,avoid,pos,meat15_crop.jpg,1,3,1.0,22.0,20.0,3.0,EAT                                    DON'T EAT,2235.7527,2227.696,2144.0488,1,2237.092
24,1,False,left,avoid,pos,meat27_crop.jpg,1,3,1.0,23.0,20.0,3.0,EAT                                    DON'T EAT,2237.7712,2227.696,2144.0488,--,--
25,1,False,left,avoid,pos,meat31_crop.jpg,1,3,1.0,24.0,20.0,3.0,EAT                                    DON'T EAT,2239.7893,2227.696,2144.0488,--,--
26,1,False,left,avoid,pos,meat32_crop.jpg,1,3,1.0,25.0,20.0,3.0,EAT                                    DON'T EAT,2241.8071,2227.696,2144.0488,--,--
27,1,False,left,avoid,pos,meat13_crop.jpg,1,3,1.0,26.0,20.0,3.0,EAT                                    DON'T EAT,2243.8262,2227.696,2144.0488,--,--
28,1,False,left,avoid,pos,meat28_crop.jpg,1,3,1.0,27.0,20.0,3.0,EAT                                    DON'T EAT,2245.8445,2227.696,2144.0488,--,--
29,1,False,left,avoid,pos,meat14_crop.jpg,1,3,1.0,28.0,20.0,3.0,EAT                                    DON'T EAT,2247.8625,2227.696,2144.0488,--,--
30,1,False,left,avoid,pos,meat23_crop.jpg,1,3,1.0,29.0,20.0,3.0,EAT                                    DON'T EAT,2249.881,2227.696,2144.0488,--,--
31,3,False,right,approach,pos,cake4_crop.jpg,1,4,1.0,30.0,20.0,4.0,EAT                                    DON'T EAT,2269.2305,2265.2102,2144.0488,1,2270.1433
32,3,False,right,approach,pos,cake21_crop.jpg,1,4,1.0,31.0,20.0,4.0,EAT                                    DON'T EAT,2271.2488,2265.2102,2144.0488,1,2271.865
33,3,False,right,approach,pos,cake26_crop.jpg,1,4,1.0,32.0,20.0,4.0,EAT                                    DON'T EAT,2273.267,2265.2102,2144.0488,1,2273.8584
34,3,False,right,approach,pos,cake37_crop.jpg,1,4,1.0,33.0,20.0,4.0,EAT                                    DON'T EAT,2275.2856,2265.2102,2144.0488,1,2275.7502
35,3,True,right,avoid,pos,meat6_crop.jpg,1,4,1.0,34.0,20.0,4.0,EAT                                    DON'T EAT,2277.304,2265.2102,2144.0488,--,--
36,3,True,right,avoid,neg,fungus34_crop.jpg,1,4,1.0,35.0,20.0,4.0,EAT                                    DON'T EAT,2279.3223,2265.2102,2144.0488,--,--
37,3,False,right,approach,pos,cake5_crop.jpg,1,4,1.0,36.0,20.0,4.0,EAT                                    DON'T EAT,2281.3408,2265.2102,2144.0488,1,2282.1743
38,3,False,right,approach,pos,cake12_crop.jpg,1,4,1.0,37.0,20.0,4.0,EAT                                    DON'T EAT,2283.359,2265.2102,2144.0488,1,2283.9521
39,3,False,right,approach,pos,cake15_crop.jpg,1,4,1.0,38.0,20.0,4.0,EAT                                    DON'T EAT,2285.3772,2265.2102,2144.0488,1,2285.9568
40,3,False,right,approach,pos,cake16_crop.jpg,1,4,1.0,39.0,20.0,4.0,EAT                                    DON'T EAT,2287.395,2265.2102,2144.0488,1,2287.9055
41,3,False,right,avoid,neg,fungus11_crop.jpg,1,5,1.0,40.0,20.0,5.0,EAT                                    DON'T EAT,2307.4294,2303.409,2144.0488,--,--
42,3,False,right,avoid,neg,fungus17_crop.jpg,1,5,1.0,41.0,20.0,5.0,EAT                                    DON'T EAT,2309.4473,2303.409,2144.0488,--,--
43,3,False,right,avoid,neg,fungus12_crop.jpg,1,5,1.0,42.0,20.0,5.0,EAT                                    DON'T EAT,2311.4656,2303.409,2144.0488,--,--
44,3,False,right,avoid,neg,fungus36_crop.jpg,1,5,1.0,43.0,20.0,5.0,EAT                                    DON'T EAT,2313.484,2303.409,2144.0488,--,--
45,3,False,right,avoid,neg,fungus9_crop.jpg,1,5,1.0,44.0,20.0,5.0,EAT                                    DON'T EAT,2315.5022,2303.409,2144.0488,--,--
46,3,False,right,avoid,neg,fungus3_crop.jpg,1,5,1.0,45.0,20.0,5.0,EAT                                    DON'T EAT,2317.5205,2303.409,2144.0488,--,--
47,3,False,right,avoid,neg,fungus23_crop.jpg,1,5,1.0,46.0,20.0,5.0,EAT                                    DON'T EAT,2319.539,2303.409,2144.0488,--,--
48,3,True,right,approach,neg,insect1_crop.jpg,1,5,1.0,47.0,20.0,5.0,EAT                                    DON'T EAT,2321.5571,2303.409,2144.0488,1,2322.2634
49,3,False,right,avoid,neg,fungus29_crop.jpg,1,5,1.0,48.0,20.0,5.0,EAT                                    DON'T EAT,2323.5757,2303.409,2144.0488,--,--
50,3,True,right,approach,pos,cake31_crop.jpg,1,5,1.0,49.0,20.0,5.0,EAT                                    DON'T EAT,2325.594,2303.409,2144.0488,1,2326.3435
51,2,False,right,approach,neg,insect2_crop.jpg,1,6,1.0,50.0,20.0,6.0,EAT                                    DON'T EAT,2345.527,2341.507,2144.0488,1,2346.4062
52,2,False,right,approach,neg,insect26_crop.jpg,1,6,1.0,51.0,20.0,6.0,EAT                                    DON'T EAT,2347.5454,2341.507,2144.0488,1,2348.274
53,2,False,right,approach,neg,insect29_crop.jpg,1,6,1.0,52.0,20.0,6.0,EAT                                    DON'T EAT,2349.564,2341.507,2144.0488,1,2350.1338
54,2,False,right,approach,neg,insect24_crop.jpg,1,6,1.0,53.0,20.0,6.0,EAT                                    DON'T EAT,2351.582,2341.507,2144.0488,1,2352.0884
55,2,True,right,avoid,pos,meat27_crop.jpg,1,6,1.0,54.0,20.0,6.0,EAT                                    DON'T EAT,2353.6006,2341.507,2144.0488,--,--
56,2,False,right,approach,neg,insect21_crop.jpg,1,6,1.0,55.0,20.0,6.0,EAT                                    DON'T EAT,2355.619,2341.507,2144.0488,1,2356.33
57,2,True,right,avoid,neg,fungus40_crop.jpg,1,6,1.0,56.0,20.0,6.0,EAT                                    DON'T EAT,2357.6372,2341.507,2144.0488,--,--
58,2,False,right,approach,neg,insect27_crop.jpg,1,6,1.0,57.0,20.0,6.0,EAT                                    DON'T EAT,2359.6555,2341.507,2144.0488,1,2360.5576
59,2,False,right,approach,neg,insect23_crop.jpg,1,6,1.0,58.0,20.0,6.0,EAT                                    DON'T EAT,2361.6738,2341.507,2144.0488,1,2362.445
60,2,False,right,approach,neg,insect9_crop.jpg,1,6,1.0,59.0,20.0,6.0,EAT                                    DON'T EAT,2363.692,2341.507,2144.0488,1,2364.2332
61,1,False,left,approach,pos,cake24_crop.jpg,1,7,1.0,60.0,20.0,7.0,EAT                                    DON'T EAT,2383.3584,2379.3386,2144.0488,1,2384.1394
62,1,True,left,avoid,neg,fungus7_crop.jpg,1,7,1.0,61.0,20.0,7.0,EAT                                    DON'T EAT,2385.377,2379.3386,2144.0488,--,--
63,1,False,left,approach,pos,cake32_crop.jpg,1,7,1.0,62.0,20.0,7.0,EAT                                    DON'T EAT,2387.3953,2379.3386,2144.0488,1,2388.243
64,1,True,left,avoid,pos,meat16_crop.jpg,1,7,1.0,63.0,20.0,7.0,EAT                                    DON'T EAT,2389.4138,2379.3386,2144.0488,--,--
65,1,False,left,approach,pos,cake26_crop.jpg,1,7,1.0,64.0,20.0,7.0,EAT                                    DON'T EAT,2391.4321,2379.3386,2144.0488,1,2392.0178
66,1,False,left,approach,pos,cake15_crop.jpg,1,7,1.0,65.0,20.0,7.0,EAT                                    DON'T EAT,2393.4504,2379.3386,2144.0488,1,2394.137
67,1,False,left,approach,pos,cake40_crop.jpg,1,7,1.0,66.0,20.0,7.0,EAT                                    DON'T EAT,2395.4688,2379.3386,2144.0488,1,2396.0068
68,1,False,left,approach,pos,cake22_crop.jpg,1,7,1.0,67.0,20.0,7.0,EAT                                    DON'T EAT,2397.487,2379.3386,2144.0488,1,2397.96
69,1,False,left,approach,pos,cake11_crop.jpg,1,7,1.0,68.0,20.0,7.0,EAT                                    DON'T EAT,2399.5054,2379.3386,2144.0488,1,2400.038
70,1,False,left,approach,pos,cake35_crop.jpg,1,7,1.0,69.0,20.0,7.0,EAT                                    DON'T EAT,2401.5237,2379.3386,2144.0488,1,2401.98
71,2,False,left,approach,pos,cake9_crop.jpg,1,8,1.0,70.0,20.0,8.0,EAT                                    DON'T EAT,2417.9875,2413.9673,2144.0488,1,2418.7483
72,2,False,left,approach,pos,cake31_crop.jpg,1,8,1.0,71.0,20.0,8.0,EAT                                    DON'T EAT,2420.0059,2413.9673,2144.0488,1,2420.5674
73,2,False,left,approach,pos,cake14_crop.jpg,1,8,1.0,72.0,20.0,8.0,EAT                                    DON'T EAT,2422.0234,2413.9673,2144.0488,1,2422.485
74,2,True,left,avoid,neg,fungus10_crop.jpg,1,8,1.0,73.0,20.0,8.0,EAT                                    DON'T EAT,2424.0425,2413.9673,2144.0488,--,--
75,2,False,left,approach,pos,cake33_crop.jpg,1,8,1.0,74.0,20.0,8.0,EAT                                    DON'T EAT,2426.0608,2413.9673,2144.0488,1,2426.779
76,2,True,left,avoid,pos,meat30_crop.jpg,1,8,1.0,75.0,20.0,8.0,EAT                                    DON'T EAT,2428.079,2413.9673,2144.0488,--,--
77,2,False,left,approach,pos,cake10_crop.jpg,1,8,1.0,76.0,20.0,8.0,EAT                                    DON'T EAT,2430.0974,2413.9673,2144.0488,1,2431.1833
78,2,False,left,approach,pos,cake12_crop.jpg,1,8,1.0,77.0,20.0,8.0,EAT                                    DON'T EAT,2432.1152,2413.9673,2144.0488,1,2432.8293
79,2,False,left,approach,pos,cake19_crop.jpg,1,8,1.0,78.0,20.0,8.0,EAT                                    DON'T EAT,2434.134,2413.9673,2144.0488,1,2434.7239
80,2,False,left,approach,pos,cake13_crop.jpg,1,8,1.0,79.0,20.0,8.0,EAT                                    DON'T EAT,2436.1526,2413.9673,2144.0488,1,2436.7468
81,0,False,right,avoid,pos,meat23_crop.jpg,2,9,1.0,80.0,20.0,9.0,EAT                                    DON'T EAT,2543.4749,2539.4548,2527.3127,--,--
82,0,True,right,approach,neg,insect3_crop.jpg,2,9,1.0,81.0,20.0,9.0,EAT                                    DON'T EAT,2545.4934,2539.4548,2527.3127,1,2546.4333
83,0,False,right,avoid,pos,meat20_crop.jpg,2,9,1.0,82.0,20.0,9.0,EAT                                    DON'T EAT,2547.5117,2539.4548,2527.3127,--,--
84,0,False,right,avoid,pos,meat17_crop.jpg,2,9,1.0,83.0,20.0,9.0,EAT                                    DON'T EAT,2549.53,2539.4548,2527.3127,--,--
85,0,False,right,avoid,pos,meat38_crop.jpg,2,9,1.0,84.0,20.0,9.0,EAT                                    DON'T EAT,2551.548,2539.4548,2527.3127,--,--
86,0,False,right,avoid,pos,meat1_crop.jpg,2,9,1.0,85.0,20.0,9.0,EAT                                    DON'T EAT,2553.5667,2539.4548,2527.3127,--,--
87,0,False,right,avoid,pos,meat29_crop.jpg,2,9,1.0,86.0,20.0,9.0,EAT                                    DON'T EAT,2555.585,2539.4548,2527.3127,--,--
88,0,False,right,avoid,pos,meat22_crop.jpg,2,9,1.0,87.0,20.0,9.0,EAT                                    DON'T EAT,2557.6033,2539.4548,2527.3127,--,--
89,0,False,right,avoid,pos,meat10_crop.jpg,2,9,1.0,88.0,20.0,9.0,EAT                                    DON'T EAT,2559.6216,2539.4548,2527.3127,--,--
90,0,True,right,approach,pos,cake18_crop.jpg,2,9,1.0,89.0,20.0,9.0,EAT                                    DON'T EAT,2561.6401,2539.4548,2527.3127,--,--
91,3,True,right,avoid,neg,fungus14_crop.jpg,2,10,1.0,90.0,20.0,10.0,EAT                                    DON'T EAT,2581.1726,2577.1528,2527.3127,--,--
92,3,False,right,approach,neg,insect28_crop.jpg,2,10,1.0,91.0,20.0,10.0,EAT                                    DON'T EAT,2583.1914,2577.1528,2527.3127,1,2584.0237
93,3,False,right,approach,neg,insect22_crop.jpg,2,10,1.0,92.0,20.0,10.0,EAT                                    DON'T EAT,2585.2097,2577.1528,2527.3127,1,2585.8982
94,3,False,right,approach,neg,insect13_crop.jpg,2,10,1.0,93.0,20.0,10.0,EAT                                    DON'T EAT,2587.228,2577.1528,2527.3127,1,2587.702
95,3,True,right,avoid,pos,meat7_crop.jpg,2,10,1.0,94.0,20.0,10.0,EAT                                    DON'T EAT,2589.2463,2577.1528,2527.3127,--,--
96,3,False,right,approach,neg,insect35_crop.jpg,2,10,1.0,95.0,20.0,10.0,EAT                                    DON'T EAT,2591.2646,2577.1528,2527.3127,1,2592.069
97,3,False,right,approach,neg,insect38_crop.jpg,2,10,1.0,96.0,20.0,10.0,EAT                                    DON'T EAT,2593.2827,2577.1528,2527.3127,1,2594.2126
98,3,False,right,approach,neg,insect6_crop.jpg,2,10,1.0,97.0,20.0,10.0,EAT                                    DON'T EAT,2595.3013,2577.1528,2527.3127,1,2596.1062
99,3,False,right,approach,neg,insect25_crop.jpg,2,10,1.0,98.0,20.0,10.0,EAT                                    DON'T EAT,2597.3196,2577.1528,2527.3127,1,2597.9326
100,3,False,right,approach,neg,insect19_crop.jpg,2,10,1.0,99.0,20.0,10.0,EAT                                    DON'T EAT,2599.338,2577.1528,2527.3127,1,2599.8782
101,0,False,right,approach,pos,cake33_crop.jpg,2,11,1.0,100.0,20.0,11.0,EAT                                    DON'T EAT,2617.5198,2613.4995,2527.3127,1,2618.4084
102,0,True,right,avoid,pos,meat4_crop.jpg,2,11,1.0,101.0,20.0,11.0,EAT                                    DON'T EAT,2619.538,2613.4995,2527.3127,--,--
103,0,False,right,approach,pos,cake20_crop.jpg,2,11,1.0,102.0,20.0,11.0,EAT                                    DON'T EAT,2621.5562,2613.4995,2527.3127,1,2622.2375
104,0,False,right,approach,pos,cake19_crop.jpg,2,11,1.0,103.0,20.0,11.0,EAT                                    DON'T EAT,2623.575,2613.4995,2527.3127,1,2624.3052
105,0,False,right,approach,pos,cake6_crop.jpg,2,11,1.0,104.0,20.0,11.0,EAT                                    DON'T EAT,2625.5933,2613.4995,2527.3127,1,2626.2493
106,0,False,right,approach,pos,cake35_crop.jpg,2,11,1.0,105.0,20.0,11.0,EAT                                    DON'T EAT,2627.6116,2613.4995,2527.3127,1,2628.1836
107,0,False,right,approach,pos,cake29_crop.jpg,2,11,1.0,106.0,20.0,11.0,EAT                                    DON'T EAT,2629.63,2613.4995,2527.3127,1,2630.1472
108,0,False,right,approach,pos,cake24_crop.jpg,2,11,1.0,107.0,20.0,11.0,EAT                                    DON'T EAT,2631.6482,2613.4995,2527.3127,1,2632.1929
109,0,True,right,avoid,neg,fungus4_crop.jpg,2,11,1.0,108.0,20.0,11.0,EAT                                    DON'T EAT,2633.6665,2613.4995,2527.3127,--,--
110,0,False,right,approach,pos,cake8_crop.jpg,2,11,1.0,109.0,20.0,11.0,EAT                                    DON'T EAT,2635.6848,2613.4995,2527.3127,1,2636.5847
111,0,False,left,approach,neg,insect3_crop.jpg,2,12,1.0,110.0,20.0,12.0,EAT                                    DON'T EAT,2652.1313,2648.1118,2527.3127,1,2652.8596
112,0,False,left,approach,neg,insect34_crop.jpg,2,12,1.0,111.0,20.0,12.0,EAT                                    DON'T EAT,2654.1501,2648.1118,2527.3127,1,2654.723
113,0,True,left,avoid,pos,meat11_crop.jpg,2,12,1.0,112.0,20.0,12.0,EAT                                    DON'T EAT,2656.1685,2648.1118,2527.3127,--,--
114,0,False,left,approach,neg,insect12_crop.jpg,2,12,1.0,113.0,20.0,12.0,EAT                                    DON'T EAT,2658.1868,2648.1118,2527.3127,1,2658.992
115,0,False,left,approach,neg,insect10_crop.jpg,2,12,1.0,114.0,20.0,12.0,EAT                                    DON'T EAT,2660.2053,2648.1118,2527.3127,1,2661.0745
116,0,True,left,avoid,neg,fungus23_crop.jpg,2,12,1.0,115.0,20.0,12.0,EAT                                    DON'T EAT,2662.2231,2648.1118,2527.3127,--,--
117,0,False,left,approach,neg,insect20_crop.jpg,2,12,1.0,116.0,20.0,12.0,EAT                                    DON'T EAT,2664.242,2648.1118,2527.3127,1,2664.9414
118,0,False,left,approach,neg,insect36_crop.jpg,2,12,1.0,117.0,20.0,12.0,EAT                                    DON'T EAT,2666.2603,2648.1118,2527.3127,1,2666.8223
119,0,False,left,approach,neg,insect39_crop.jpg,2,12,1.0,118.0,20.0,12.0,EAT                                    DON'T EAT,2668.2786,2648.1118,2527.3127,1,2669.1582
120,0,False,left,approach,neg,insect1_crop.jpg,2,12,1.0,119.0,20.0,12.0,EAT                                    DON'T EAT,2670.2969,2648.1118,2527.3127,1,2671.0295
121,3,False,right,avoid,pos,meat13_crop.jpg,2,13,1.0,120.0,20.0,13.0,EAT                                    DON'T EAT,2688.0117,2683.9917,2527.3127,--,--
122,3,True,right,approach,pos,cake32_crop.jpg,2,13,1.0,121.0,20.0,13.0,EAT                                    DON'T EAT,2690.03,2683.9917,2527.3127,1,2690.9976
123,3,False,right,avoid,pos,meat2_crop.jpg,2,13,1.0,122.0,20.0,13.0,EAT                                    DON'T EAT,2692.0483,2683.9917,2527.3127,--,--
124,3,False,right,avoid,pos,meat31_crop.jpg,2,13,1.0,123.0,20.0,13.0,EAT                                    DON'T EAT,2694.0667,2683.9917,2527.3127,--,--
125,3,False,right,avoid,pos,meat26_crop.jpg,2,13,1.0,124.0,20.0,13.0,EAT                                    DON'T EAT,2696.0852,2683.9917,2527.3127,--,--
126,3,True,right,approach,neg,insect7_crop.jpg,2,13,1.0,125.0,20.0,13.0,EAT                                    DON'T EAT,2698.1033,2683.9917,2527.3127,1,2698.8398
127,3,False,right,avoid,pos,meat35_crop.jpg,2,13,1.0,126.0,20.0,13.0,EAT                                    DON'T EAT,2700.1218,2683.9917,2527.3127,--,--
128,3,False,right,avoid,pos,meat9_crop.jpg,2,13,1.0,127.0,20.0,13.0,EAT                                    DON'T EAT,2702.1401,2683.9917,2527.3127,--,--
129,3,False,right,avoid,pos,meat11_crop.jpg,2,13,1.0,128.0,20.0,13.0,EAT                                    DON'T EAT,2704.1584,2683.9917,2527.3127,--,--
130,3,False,right,avoid,pos,meat3_crop.jpg,2,13,1.0,129.0,20.0,13.0,EAT                                    DON'T EAT,2706.1768,2683.9917,2527.3127,--,--
131,1,False,left,approach,neg,insect8_crop.jpg,2,14,1.0,130.0,20.0,14.0,EAT                                    DON'T EAT,2722.8071,2718.7869,2527.3127,1,2723.6726
132,1,False,left,approach,neg,insect37_crop.jpg,2,14,1.0,131.0,20.0,14.0,EAT                                    DON'T EAT,2724.8254,2718.7869,2527.3127,1,2725.855
133,1,False,left,approach,neg,insect23_crop.jpg,2,14,1.0,132.0,20.0,14.0,EAT                                    DON'T EAT,2726.844,2718.7869,2527.3127,1,2727.4023
134,1,False,left,approach,neg,insect9_crop.jpg,2,14,1.0,133.0,20.0,14.0,EAT                                    DON'T EAT,2728.862,2718.7869,2527.3127,1,2729.5386
135,1,False,left,approach,neg,insect11_crop.jpg,2,14,1.0,134.0,20.0,14.0,EAT                                    DON'T EAT,2730.8806,2718.7869,2527.3127,1,2731.3975
136,1,False,left,approach,neg,insect28_crop.jpg,2,14,1.0,135.0,20.0,14.0,EAT                                    DON'T EAT,2732.899,2718.7869,2527.3127,1,2733.5574
137,1,False,left,approach,neg,insect15_crop.jpg,2,14,1.0,136.0,20.0,14.0,EAT                                    DON'T EAT,2734.9172,2718.7869,2527.3127,1,2735.425
138,1,True,left,avoid,pos,meat33_crop.jpg,2,14,1.0,137.0,20.0,14.0,EAT                                    DON'T EAT,2736.9358,2718.7869,2527.3127,--,--
139,1,True,left,avoid,neg,fungus24_crop.jpg,2,14,1.0,138.0,20.0,14.0,EAT                                    DON'T EAT,2738.9539,2718.7869,2527.3127,--,--
140,1,False,left,approach,neg,insect7_crop.jpg,2,14,1.0,139.0,20.0,14.0,EAT                                    DON'T EAT,2740.9724,2718.7869,2527.3127,1,2741.734
141,1,False,right,avoid,pos,meat5_crop.jpg,2,15,1.0,140.0,20.0,15.0,EAT                                    DON'T EAT,2758.737,2754.7168,2527.3127,--,--
142,1,False,right,avoid,pos,meat36_crop.jpg,2,15,1.0,141.0,20.0,15.0,EAT                                    DON'T EAT,2760.7554,2754.7168,2527.3127,--,--
143,1,False,right,avoid,pos,meat40_crop.jpg,2,15,1.0,142.0,20.0,15.0,EAT                                    DON'T EAT,2762.7737,2754.7168,2527.3127,--,--
144,1,False,right,avoid,pos,meat15_crop.jpg,2,15,1.0,143.0,20.0,15.0,EAT                                    DON'T EAT,2764.792,2754.7168,2527.3127,--,--
145,1,False,right,avoid,pos,meat34_crop.jpg,2,15,1.0,144.0,20.0,15.0,EAT                                    DON'T EAT,2766.8105,2754.7168,2527.3127,--,--
146,1,True,right,approach,neg,insect15_crop.jpg,2,15,1.0,145.0,20.0,15.0,EAT                                    DON'T EAT,2768.8289,2754.7168,2527.3127,1,2770.3992
147,1,False,right,avoid,pos,meat32_crop.jpg,2,15,1.0,146.0,20.0,15.0,EAT                                    DON'T EAT,2770.8472,2754.7168,2527.3127,--,--
148,1,True,right,approach,pos,cake22_crop.jpg,2,15,1.0,147.0,20.0,15.0,EAT                                    DON'T EAT,2772.8655,2754.7168,2527.3127,1,2773.639
149,1,False,right,avoid,pos,meat21_crop.jpg,2,15,1.0,148.0,20.0,15.0,EAT                                    DON'T EAT,2774.8838,2754.7168,2527.3127,--,--
150,1,False,right,avoid,pos,meat24_crop.jpg,2,15,1.0,149.0,20.0,15.0,EAT                                    DON'T EAT,2776.9023,2754.7168,2527.3127,--,--
151,1,False,right,approach,neg,insect10_crop.jpg,2,16,1.0,150.0,20.0,16.0,EAT                                    DON'T EAT,2795.3008,2791.2808,2527.3127,1,2795.9973
152,1,False,right,approach,neg,insect40_crop.jpg,2,16,1.0,151.0,20.0,16.0,EAT                                    DON'T EAT,2797.319,2791.2808,2527.3127,1,2798.1455
153,1,False,right,approach,neg,insect8_crop.jpg,2,16,1.0,152.0,20.0,16.0,EAT                                    DON'T EAT,2799.3374,2791.2808,2527.3127,1,2799.9182
154,1,False,right,approach,neg,insect20_crop.jpg,2,16,1.0,153.0,20.0,16.0,EAT                                    DON'T EAT,2801.356,2791.2808,2527.3127,1,2801.853
155,1,True,right,avoid,neg,fungus5_crop.jpg,2,16,1.0,154.0,20.0,16.0,EAT                                    DON'T EAT,2803.3743,2791.2808,2527.3127,--,--
156,1,False,right,approach,neg,insect36_crop.jpg,2,16,1.0,155.0,20.0,16.0,EAT                                    DON'T EAT,2805.3928,2791.2808,2527.3127,1,2806.2998
157,1,False,right,approach,neg,insect34_crop.jpg,2,16,1.0,156.0,20.0,16.0,EAT                                    DON'T EAT,2807.411,2791.2808,2527.3127,1,2808.2654
158,1,True,right,avoid,pos,meat33_crop.jpg,2,16,1.0,157.0,20.0,16.0,EAT                                    DON'T EAT,2809.4292,2791.2808,2527.3127,--,--
159,1,False,right,approach,neg,insect11_crop.jpg,2,16,1.0,158.0,20.0,16.0,EAT                                    DON'T EAT,2811.4475,2791.2808,2527.3127,1,2812.1445
160,1,False,right,approach,neg,insect37_crop.jpg,2,16,1.0,159.0,20.0,16.0,EAT                                    DON'T EAT,2813.466,2791.2808,2527.3127,1,2814.3213
161,2,False,left,approach,neg,insect35_crop.jpg,3,17,1.0,160.0,20.0,17.0,EAT                                    DON'T EAT,2914.1162,2910.0962,2898.6401,1,2914.9739
162,2,False,left,approach,neg,insect31_crop.jpg,3,17,1.0,161.0,20.0,17.0,EAT                                    DON'T EAT,2916.1345,2910.0962,2898.6401,1,2916.7253
163,2,False,left,approach,neg,insect22_crop.jpg,3,17,1.0,162.0,20.0,17.0,EAT                                    DON'T EAT,2918.1526,2910.0962,2898.6401,1,2918.7034
164,2,True,left,avoid,neg,fungus33_crop.jpg,3,17,1.0,163.0,20.0,17.0,EAT                                    DON'T EAT,2920.1711,2910.0962,2898.6401,--,--
165,2,False,left,approach,neg,insect5_crop.jpg,3,17,1.0,164.0,20.0,17.0,EAT                                    DON'T EAT,2922.1895,2910.0962,2898.6401,1,2922.816
166,2,False,left,approach,neg,insect24_crop.jpg,3,17,1.0,165.0,20.0,17.0,EAT                                    DON'T EAT,2924.2078,2910.0962,2898.6401,1,2924.8193
167,2,False,left,approach,neg,insect40_crop.jpg,3,17,1.0,166.0,20.0,17.0,EAT                                    DON'T EAT,2926.2263,2910.0962,2898.6401,1,2926.7556
168,2,False,left,approach,neg,insect21_crop.jpg,3,17,1.0,167.0,20.0,17.0,EAT                                    DON'T EAT,2928.2446,2910.0962,2898.6401,1,2928.816
169,2,False,left,approach,neg,insect27_crop.jpg,3,17,1.0,168.0,20.0,17.0,EAT                                    DON'T EAT,2930.2627,2910.0962,2898.6401,1,2930.7793
170,2,True,left,avoid,pos,meat9_crop.jpg,3,17,1.0,169.0,20.0,17.0,EAT                                    DON'T EAT,2932.2808,2910.0962,2898.6401,--,--
171,2,True,right,approach,pos,cake23_crop.jpg,3,18,1.0,170.0,20.0,18.0,EAT                                    DON'T EAT,2951.7974,2947.777,2898.6401,1,2952.7385
172,2,False,right,avoid,pos,meat37_crop.jpg,3,18,1.0,171.0,20.0,18.0,EAT                                    DON'T EAT,2953.8152,2947.777,2898.6401,--,--
173,2,False,right,avoid,pos,meat12_crop.jpg,3,18,1.0,172.0,20.0,18.0,EAT                                    DON'T EAT,2955.8342,2947.777,2898.6401,--,--
174,2,False,right,avoid,pos,meat19_crop.jpg,3,18,1.0,173.0,20.0,18.0,EAT                                    DON'T EAT,2957.8525,2947.777,2898.6401,--,--
175,2,True,right,approach,neg,insect14_crop.jpg,3,18,1.0,174.0,20.0,18.0,EAT                                    DON'T EAT,2959.8708,2947.777,2898.6401,1,2960.622
176,2,False,right,avoid,pos,meat25_crop.jpg,3,18,1.0,175.0,20.0,18.0,EAT                                    DON'T EAT,2961.8892,2947.777,2898.6401,--,--
177,2,False,right,avoid,pos,meat30_crop.jpg,3,18,1.0,176.0,20.0,18.0,EAT                                    DON'T EAT,2963.9075,2947.777,2898.6401,--,--
178,2,False,right,avoid,pos,meat39_crop.jpg,3,18,1.0,177.0,20.0,18.0,EAT                                    DON'T EAT,2965.926,2947.777,2898.6401,--,--
179,2,False,right,avoid,pos,meat14_crop.jpg,3,18,1.0,178.0,20.0,18.0,EAT                                    DON'T EAT,2967.944,2947.777,2898.6401,--,--
180,2,False,right,avoid,pos,meat8_crop.jpg,3,18,1.0,179.0,20.0,18.0,EAT                                    DON'T EAT,2969.9626,2947.777,2898.6401,--,--
181,0,False,right,approach,neg,insect33_crop.jpg,3,19,1.0,180.0,20.0,19.0,EAT                                    DON'T EAT,2987.1602,2983.1401,2898.6401,1,2987.8164
182,0,False,right,approach,neg,insect16_crop.jpg,3,19,1.0,181.0,20.0,19.0,EAT                                    DON'T EAT,2989.1785,2983.1401,2898.6401,1,2989.698
183,0,False,right,approach,neg,insect12_crop.jpg,3,19,1.0,182.0,20.0,19.0,EAT                                    DON'T EAT,2991.1968,2983.1401,2898.6401,1,2991.6199
184,0,False,right,approach,neg,insect4_crop.jpg,3,19,1.0,183.0,20.0,19.0,EAT                                    DON'T EAT,2993.215,2983.1401,2898.6401,1,2993.681
185,0,False,right,approach,neg,insect30_crop.jpg,3,19,1.0,184.0,20.0,19.0,EAT                                    DON'T EAT,2995.2334,2983.1401,2898.6401,1,2995.6965
186,0,True,right,avoid,neg,fungus1_crop.jpg,3,19,1.0,185.0,20.0,19.0,EAT                                    DON'T EAT,2997.2517,2983.1401,2898.6401,1,2997.6848
187,0,True,right,avoid,pos,meat18_crop.jpg,3,19,1.0,186.0,20.0,19.0,EAT                                    DON'T EAT,2999.2703,2983.1401,2898.6401,--,--
188,0,False,right,approach,neg,insect39_crop.jpg,3,19,1.0,187.0,20.0,19.0,EAT                                    DON'T EAT,3001.2886,2983.1401,2898.6401,1,3002.0696
189,0,False,right,approach,neg,insect17_crop.jpg,3,19,1.0,188.0,20.0,19.0,EAT                                    DON'T EAT,3003.307,2983.1401,2898.6401,1,3004.1616
190,0,False,right,approach,neg,insect31_crop.jpg,3,19,1.0,189.0,20.0,19.0,EAT                                    DON'T EAT,3005.3252,2983.1401,2898.6401,1,3006.1514
191,0,False,left,avoid,pos,meat2_crop.jpg,3,20,1.0,190.0,20.0,20.0,EAT                                    DON'T EAT,3021.5388,3017.5183,2898.6401,--,--
192,0,False,left,avoid,pos,meat26_crop.jpg,3,20,1.0,191.0,20.0,20.0,EAT                                    DON'T EAT,3023.557,3017.5183,2898.6401,--,--
193,0,False,left,avoid,pos,meat3_crop.jpg,3,20,1.0,192.0,20.0,20.0,EAT                                    DON'T EAT,3025.5754,3017.5183,2898.6401,--,--
194,0,False,left,avoid,pos,meat19_crop.jpg,3,20,1.0,193.0,20.0,20.0,EAT                                    DON'T EAT,3027.5938,3017.5183,2898.6401,--,--
195,0,False,left,avoid,pos,meat18_crop.jpg,3,20,1.0,194.0,20.0,20.0,EAT                                    DON'T EAT,3029.612,3017.5183,2898.6401,--,--
196,0,False,left,avoid,pos,meat39_crop.jpg,3,20,1.0,195.0,20.0,20.0,EAT                                    DON'T EAT,3031.6301,3017.5183,2898.6401,--,--
197,0,True,left,approach,neg,insect17_crop.jpg,3,20,1.0,196.0,20.0,20.0,EAT                                    DON'T EAT,3033.6484,3017.5183,2898.6401,1,3034.317
198,0,False,left,avoid,pos,meat1_crop.jpg,3,20,1.0,197.0,20.0,20.0,EAT                                    DON'T EAT,3035.667,3017.5183,2898.6401,--,--
199,0,True,left,approach,pos,cake23_crop.jpg,3,20,1.0,198.0,20.0,20.0,EAT                                    DON'T EAT,3037.6855,3017.5183,2898.6401,1,3038.3918
200,0,False,left,avoid,pos,meat34_crop.jpg,3,20,1.0,199.0,20.0,20.0,EAT                                    DON'T EAT,3039.7039,3017.5183,2898.6401,--,--
201,3,False,left,avoid,pos,meat21_crop.jpg,3,21,1.0,200.0,20.0,21.0,EAT                                    DON'T EAT,3057.8523,3053.832,2898.6401,--,--
202,3,False,left,avoid,pos,meat38_crop.jpg,3,21,1.0,201.0,20.0,21.0,EAT                                    DON'T EAT,3059.8706,3053.832,2898.6401,--,--
203,3,False,left,avoid,pos,meat20_crop.jpg,3,21,1.0,202.0,20.0,21.0,EAT                                    DON'T EAT,3061.889,3053.832,2898.6401,--,--
204,3,False,left,avoid,pos,meat10_crop.jpg,3,21,1.0,203.0,20.0,21.0,EAT                                    DON'T EAT,3063.9072,3053.832,2898.6401,--,--
205,3,False,left,avoid,pos,meat5_crop.jpg,3,21,1.0,204.0,20.0,21.0,EAT                                    DON'T EAT,3065.9258,3053.832,2898.6401,--,--
206,3,False,left,avoid,pos,meat7_crop.jpg,3,21,1.0,205.0,20.0,21.0,EAT                                    DON'T EAT,3067.9438,3053.832,2898.6401,--,--
207,3,True,left,approach,pos,cake1_crop.jpg,3,21,1.0,206.0,20.0,21.0,EAT                                    DON'T EAT,3069.9624,3053.832,2898.6401,1,3070.8096
208,3,True,left,approach,neg,insect18_crop.jpg,3,21,1.0,207.0,20.0,21.0,EAT                                    DON'T EAT,3071.9807,3053.832,2898.6401,1,3072.7856
209,3,False,left,avoid,pos,meat25_crop.jpg,3,21,1.0,208.0,20.0,21.0,EAT                                    DON'T EAT,3073.9988,3053.832,2898.6401,--,--
210,3,False,left,avoid,pos,meat35_crop.jpg,3,21,1.0,209.0,20.0,21.0,EAT                                    DON'T EAT,3076.0173,3053.832,2898.6401,--,--
211,3,False,left,approach,pos,cake7_crop.jpg,3,22,1.0,210.0,20.0,22.0,EAT                                    DON'T EAT,3092.3308,3088.3108,2898.6401,1,3093.0815
212,3,False,left,approach,pos,cake2_crop.jpg,3,22,1.0,211.0,20.0,22.0,EAT                                    DON'T EAT,3094.3494,3088.3108,2898.6401,1,3094.8567
213,3,True,left,avoid,neg,fungus28_crop.jpg,3,22,1.0,212.0,20.0,22.0,EAT                                    DON'T EAT,3096.3674,3088.3108,2898.6401,--,--
214,3,False,left,approach,pos,cake5_crop.jpg,3,22,1.0,213.0,20.0,22.0,EAT                                    DON'T EAT,3098.386,3088.3108,2898.6401,1,3098.9165
215,3,False,left,approach,pos,cake37_crop.jpg,3,22,1.0,214.0,20.0,22.0,EAT                                    DON'T EAT,3100.4043,3088.3108,2898.6401,1,3101.2375
216,3,False,left,approach,pos,cake3_crop.jpg,3,22,1.0,215.0,20.0,22.0,EAT                                    DON'T EAT,3102.422,3088.3108,2898.6401,1,3103.0981
217,3,True,left,avoid,pos,meat8_crop.jpg,3,22,1.0,216.0,20.0,22.0,EAT                                    DON'T EAT,3104.4412,3088.3108,2898.6401,--,--
218,3,False,left,approach,pos,cake21_crop.jpg,3,22,1.0,217.0,20.0,22.0,EAT                                    DON'T EAT,3106.4592,3088.3108,2898.6401,1,3106.9893
219,3,False,left,approach,pos,cake16_crop.jpg,3,22,1.0,218.0,20.0,22.0,EAT                                    DON'T EAT,3108.4775,3088.3108,2898.6401,1,3109.0278
220,3,False,left,approach,pos,cake8_crop.jpg,3,22,1.0,219.0,20.0,22.0,EAT                                    DON'T EAT,3110.496,3088.3108,2898.6401,1,3110.9932
221,2,True,left,approach,neg,insect19_crop.jpg,3,23,1.0,220.0,20.0,23.0,EAT                                    DON'T EAT,3129.6453,3125.6252,2898.6401,1,3130.4685
222,2,False,left,avoid,neg,fungus6_crop.jpg,3,23,1.0,221.0,20.0,23.0,EAT                                    DON'T EAT,3131.6636,3125.6252,2898.6401,--,--
223,2,False,left,avoid,neg,fungus34_crop.jpg,3,23,1.0,222.0,20.0,23.0,EAT                                    DON'T EAT,3133.6816,3125.6252,2898.6401,--,--
224,2,False,left,avoid,neg,fungus9_crop.jpg,3,23,1.0,223.0,20.0,23.0,EAT                                    DON'T EAT,3135.6997,3125.6252,2898.6401,--,--
225,2,False,left,avoid,neg,fungus14_crop.jpg,3,23,1.0,224.0,20.0,23.0,EAT                                    DON'T EAT,3137.7185,3125.6252,2898.6401,--,--
226,2,False,left,avoid,neg,fungus16_crop.jpg,3,23,1.0,225.0,20.0,23.0,EAT                                    DON'T EAT,3139.7368,3125.6252,2898.6401,--,--
227,2,False,left,avoid,neg,fungus21_crop.jpg,3,23,1.0,226.0,20.0,23.0,EAT                                    DON'T EAT,3141.7554,3125.6252,2898.6401,--,--
228,2,False,left,avoid,neg,fungus31_crop.jpg,3,23,1.0,227.0,20.0,23.0,EAT                                    DON'T EAT,3143.7737,3125.6252,2898.6401,--,--
229,2,False,left,avoid,neg,fungus3_crop.jpg,3,23,1.0,228.0,20.0,23.0,EAT                                    DON'T EAT,3145.792,3125.6252,2898.6401,--,--
230,2,True,left,approach,pos,cake39_crop.jpg,3,23,1.0,229.0,20.0,23.0,EAT                                    DON'T EAT,3147.81,3125.6252,2898.6401,1,3148.6455
231,2,False,left,avoid,pos,meat37_crop.jpg,3,24,1.0,230.0,20.0,24.0,EAT                                    DON'T EAT,3164.9077,3160.8877,2898.6401,--,--
232,2,False,left,avoid,pos,meat24_crop.jpg,3,24,1.0,231.0,20.0,24.0,EAT                                    DON'T EAT,3166.926,3160.8877,2898.6401,--,--
233,2,True,left,approach,neg,insect25_crop.jpg,3,24,1.0,232.0,20.0,24.0,EAT                                    DON'T EAT,3168.9446,3160.8877,2898.6401,1,3169.675
234,2,False,left,avoid,pos,meat6_crop.jpg,3,24,1.0,233.0,20.0,24.0,EAT                                    DON'T EAT,3170.9626,3160.8877,2898.6401,--,--
235,2,True,left,approach,pos,cake25_crop.jpg,3,24,1.0,234.0,20.0,24.0,EAT                                    DON'T EAT,3172.9807,3160.8877,2898.6401,1,3173.6274
236,2,False,left,avoid,pos,meat12_crop.jpg,3,24,1.0,235.0,20.0,24.0,EAT                                    DON'T EAT,3174.9998,3160.8877,2898.6401,--,--
237,2,False,left,avoid,pos,meat40_crop.jpg,3,24,1.0,236.0,20.0,24.0,EAT                                    DON'T EAT,3177.0178,3160.8877,2898.6401,--,--
238,2,False,left,avoid,pos,meat4_crop.jpg,3,24,1.0,237.0,20.0,24.0,EAT                                    DON'T EAT,3179.0361,3160.8877,2898.6401,--,--
239,2,False,left,avoid,pos,meat29_crop.jpg,3,24,1.0,238.0,20.0,24.0,EAT                                    DON'T EAT,3181.0547,3160.8877,2898.6401,--,--
240,2,False,left,avoid,pos,meat17_crop.jpg,3,24,1.0,239.0,20.0,24.0,EAT                                    DON'T EAT,3183.0728,3160.8877,2898.6401,--,--
241,2,True,right,approach,pos,cake11_crop.jpg,4,25,1.0,240.0,20.0,25.0,EAT                                    DON'T EAT,3304.6406,3300.6208,3288.613,1,3305.6416
242,2,False,right,avoid,neg,fungus30_crop.jpg,4,25,1.0,241.0,20.0,25.0,EAT                                    DON'T EAT,3306.659,3300.6208,3288.613,--,--
243,2,False,right,avoid,neg,fungus38_crop.jpg,4,25,1.0,242.0,20.0,25.0,EAT                                    DON'T EAT,3308.6772,3300.6208,3288.613,--,--
244,2,False,right,avoid,neg,fungus31_crop.jpg,4,25,1.0,243.0,20.0,25.0,EAT                                    DON'T EAT,3310.6956,3300.6208,3288.613,--,--
245,2,False,right,avoid,neg,fungus13_crop.jpg,4,25,1.0,244.0,20.0,25.0,EAT                                    DON'T EAT,3312.7134,3300.6208,3288.613,--,--
246,2,False,right,avoid,neg,fungus15_crop.jpg,4,25,1.0,245.0,20.0,25.0,EAT                                    DON'T EAT,3314.7322,3300.6208,3288.613,--,--
247,2,False,right,avoid,neg,fungus19_crop.jpg,4,25,1.0,246.0,20.0,25.0,EAT                                    DON'T EAT,3316.7507,3300.6208,3288.613,--,--
248,2,False,right,avoid,neg,fungus16_crop.jpg,4,25,1.0,247.0,20.0,25.0,EAT                                    DON'T EAT,3318.769,3300.6208,3288.613,--,--
249,2,False,right,avoid,neg,fungus2_crop.jpg,4,25,1.0,248.0,20.0,25.0,EAT                                    DON'T EAT,3320.7874,3300.6208,3288.613,--,--
250,2,True,right,approach,neg,insect32_crop.jpg,4,25,1.0,249.0,20.0,25.0,EAT                                    DON'T EAT,3322.8052,3300.6208,3288.613,1,3323.5437
251,3,False,left,avoid,neg,fungus29_crop.jpg,4,26,1.0,250.0,20.0,26.0,EAT                                    DON'T EAT,3341.1208,3337.1006,3288.613,--,--
252,3,True,left,approach,neg,insect32_crop.jpg,4,26,1.0,251.0,20.0,26.0,EAT                                    DON'T EAT,3343.1384,3337.1006,3288.613,1,3343.8477
253,3,False,left,avoid,neg,fungus26_crop.jpg,4,26,1.0,252.0,20.0,26.0,EAT                                    DON'T EAT,3345.1575,3337.1006,3288.613,--,--
254,3,False,left,avoid,neg,fungus22_crop.jpg,4,26,1.0,253.0,20.0,26.0,EAT                                    DON'T EAT,3347.176,3337.1006,3288.613,--,--
255,3,False,left,avoid,neg,fungus13_crop.jpg,4,26,1.0,254.0,20.0,26.0,EAT                                    DON'T EAT,3349.1943,3337.1006,3288.613,--,--
256,3,False,left,avoid,neg,fungus1_crop.jpg,4,26,1.0,255.0,20.0,26.0,EAT                                    DON'T EAT,3351.2126,3337.1006,3288.613,--,--
257,3,False,left,avoid,neg,fungus37_crop.jpg,4,26,1.0,256.0,20.0,26.0,EAT                                    DON'T EAT,3353.231,3337.1006,3288.613,--,--
258,3,False,left,avoid,neg,fungus35_crop.jpg,4,26,1.0,257.0,20.0,26.0,EAT                                    DON'T EAT,3355.2493,3337.1006,3288.613,--,--
259,3,True,left,approach,pos,cake38_crop.jpg,4,26,1.0,258.0,20.0,26.0,EAT                                    DON'T EAT,3357.2676,3337.1006,3288.613,1,3358.2822
260,3,False,left,avoid,neg,fungus19_crop.jpg,4,26,1.0,259.0,20.0,26.0,EAT                                    DON'T EAT,3359.286,3337.1006,3288.613,--,--
261,0,False,left,avoid,neg,fungus2_crop.jpg,4,27,1.0,260.0,20.0,27.0,EAT                                    DON'T EAT,3376.6338,3372.6135,3288.613,--,--
262,0,True,left,approach,pos,cake18_crop.jpg,4,27,1.0,261.0,20.0,27.0,EAT                                    DON'T EAT,3378.652,3372.6135,3288.613,1,3379.5293
263,0,False,left,avoid,neg,fungus12_crop.jpg,4,27,1.0,262.0,20.0,27.0,EAT                                    DON'T EAT,3380.6704,3372.6135,3288.613,--,--
264,0,False,left,avoid,neg,fungus20_crop.jpg,4,27,1.0,263.0,20.0,27.0,EAT                                    DON'T EAT,3382.6887,3372.6135,3288.613,--,--
265,0,True,left,approach,neg,insect6_crop.jpg,4,27,1.0,264.0,20.0,27.0,EAT                                    DON'T EAT,3384.707,3372.6135,3288.613,1,3385.3352
266,0,False,left,avoid,neg,fungus27_crop.jpg,4,27,1.0,265.0,20.0,27.0,EAT                                    DON'T EAT,3386.7253,3372.6135,3288.613,--,--
267,0,False,left,avoid,neg,fungus40_crop.jpg,4,27,1.0,266.0,20.0,27.0,EAT                                    DON'T EAT,3388.7437,3372.6135,3288.613,1,3390.269
268,0,False,left,avoid,neg,fungus15_crop.jpg,4,27,1.0,267.0,20.0,27.0,EAT                                    DON'T EAT,3390.7622,3372.6135,3288.613,--,--
269,0,False,left,avoid,neg,fungus8_crop.jpg,4,27,1.0,268.0,20.0,27.0,EAT                                    DON'T EAT,3392.78,3372.6135,3288.613,--,--
270,0,False,left,avoid,neg,fungus17_crop.jpg,4,27,1.0,269.0,20.0,27.0,EAT                                    DON'T EAT,3394.7986,3372.6135,3288.613,--,--
271,0,False,left,approach,pos,cake27_crop.jpg,4,28,1.0,270.0,20.0,28.0,EAT                                    DON'T EAT,3411.1958,3407.1758,3288.613,1,3411.905
272,0,False,left,approach,pos,cake4_crop.jpg,4,28,1.0,271.0,20.0,28.0,EAT                                    DON'T EAT,3413.2136,3407.1758,3288.613,1,3413.8376
273,0,True,left,avoid,neg,fungus38_crop.jpg,4,28,1.0,272.0,20.0,28.0,EAT                                    DON'T EAT,3415.2324,3407.1758,3288.613,--,--
274,0,False,left,approach,pos,cake6_crop.jpg,4,28,1.0,273.0,20.0,28.0,EAT                                    DON'T EAT,3417.2507,3407.1758,3288.613,1,3417.8835
275,0,False,left,approach,pos,cake20_crop.jpg,4,28,1.0,274.0,20.0,28.0,EAT                                    DON'T EAT,3419.2693,3407.1758,3288.613,1,3419.7869
276,0,False,left,approach,pos,cake30_crop.jpg,4,28,1.0,275.0,20.0,28.0,EAT                                    DON'T EAT,3421.2874,3407.1758,3288.613,1,3421.742
277,0,False,left,approach,pos,cake29_crop.jpg,4,28,1.0,276.0,20.0,28.0,EAT                                    DON'T EAT,3423.3057,3407.1758,3288.613,1,3424.0364
278,0,True,left,avoid,pos,meat36_crop.jpg,4,28,1.0,277.0,20.0,28.0,EAT                                    DON'T EAT,3425.3242,3407.1758,3288.613,--,--
279,0,False,left,approach,pos,cake17_crop.jpg,4,28,1.0,278.0,20.0,28.0,EAT                                    DON'T EAT,3427.3425,3407.1758,3288.613,1,3428.2332
280,0,False,left,approach,pos,cake28_crop.jpg,4,28,1.0,279.0,20.0,28.0,EAT                                    DON'T EAT,3429.3608,3407.1758,3288.613,1,3430.2896
281,1,False,left,avoid,neg,fungus4_crop.jpg,4,29,1.0,280.0,20.0,29.0,EAT                                    DON'T EAT,3449.044,3445.024,3288.613,--,--
282,1,False,left,avoid,neg,fungus5_crop.jpg,4,29,1.0,281.0,20.0,29.0,EAT                                    DON'T EAT,3451.062,3445.024,3288.613,--,--
283,1,False,left,avoid,neg,fungus30_crop.jpg,4,29,1.0,282.0,20.0,29.0,EAT                                    DON'T EAT,3453.08,3445.024,3288.613,--,--
284,1,False,left,avoid,neg,fungus32_crop.jpg,4,29,1.0,283.0,20.0,29.0,EAT                                    DON'T EAT,3455.0989,3445.024,3288.613,--,--
285,1,False,left,avoid,neg,fungus36_crop.jpg,4,29,1.0,284.0,20.0,29.0,EAT                                    DON'T EAT,3457.1172,3445.024,3288.613,--,--
286,1,True,left,approach,neg,insect2_crop.jpg,4,29,1.0,285.0,20.0,29.0,EAT                                    DON'T EAT,3459.1353,3445.024,3288.613,1,3459.9902
287,1,False,left,avoid,neg,fungus25_crop.jpg,4,29,1.0,286.0,20.0,29.0,EAT                                    DON'T EAT,3461.154,3445.024,3288.613,--,--
288,1,False,left,avoid,neg,fungus39_crop.jpg,4,29,1.0,287.0,20.0,29.0,EAT                                    DON'T EAT,3463.1716,3445.024,3288.613,--,--
289,1,False,left,avoid,neg,fungus18_crop.jpg,4,29,1.0,288.0,20.0,29.0,EAT                                    DON'T EAT,3465.1907,3445.024,3288.613,--,--
290,1,True,left,approach,pos,cake34_crop.jpg,4,29,1.0,289.0,20.0,29.0,EAT                                    DON'T EAT,3467.209,3445.024,3288.613,1,3468.1929
291,2,False,right,approach,pos,cake28_crop.jpg,4,30,1.0,290.0,20.0,30.0,EAT                                    DON'T EAT,3484.44,3480.4197,3288.613,1,3485.3179
292,2,False,right,approach,pos,cake27_crop.jpg,4,30,1.0,291.0,20.0,30.0,EAT                                    DON'T EAT,3486.4583,3480.4197,3288.613,1,3487.0493
293,2,True,right,avoid,pos,meat28_crop.jpg,4,30,1.0,292.0,20.0,30.0,EAT                                    DON'T EAT,3488.4763,3480.4197,3288.613,--,--
294,2,False,right,approach,pos,cake14_crop.jpg,4,30,1.0,293.0,20.0,30.0,EAT                                    DON'T EAT,3490.4949,3480.4197,3288.613,1,3491.3188
295,2,False,right,approach,pos,cake10_crop.jpg,4,30,1.0,294.0,20.0,30.0,EAT                                    DON'T EAT,3492.5132,3480.4197,3288.613,1,3493.2332
296,2,True,right,avoid,neg,fungus33_crop.jpg,4,30,1.0,295.0,20.0,30.0,EAT                                    DON'T EAT,3494.5317,3480.4197,3288.613,--,--
297,2,False,right,approach,pos,cake9_crop.jpg,4,30,1.0,296.0,20.0,30.0,EAT                                    DON'T EAT,3496.5498,3480.4197,3288.613,1,3497.112
298,2,False,right,approach,pos,cake1_crop.jpg,4,30,1.0,297.0,20.0,30.0,EAT                                    DON'T EAT,3498.5684,3480.4197,3288.613,1,3499.3877
299,2,False,right,approach,pos,cake2_crop.jpg,4,30,1.0,298.0,20.0,30.0,EAT                                    DON'T EAT,3500.5867,3480.4197,3288.613,1,3501.1484
300,2,False,right,approach,pos,cake39_crop.jpg,4,30,1.0,299.0,20.0,30.0,EAT                                    DON'T EAT,3502.6047,3480.4197,3288.613,1,3503.2053
301,3,False,left,approach,neg,insect38_crop.jpg,4,31,1.0,300.0,20.0,31.0,EAT                                    DON'T EAT,3520.6868,3516.6665,3288.613,1,3521.7263
302,3,False,left,approach,neg,insect16_crop.jpg,4,31,1.0,301.0,20.0,31.0,EAT                                    DON'T EAT,3522.705,3516.6665,3288.613,1,3523.3486
303,3,True,left,avoid,neg,fungus11_crop.jpg,4,31,1.0,302.0,20.0,31.0,EAT                                    DON'T EAT,3524.7234,3516.6665,3288.613,--,--
304,3,False,left,approach,neg,insect4_crop.jpg,4,31,1.0,303.0,20.0,31.0,EAT                                    DON'T EAT,3526.7417,3516.6665,3288.613,1,3527.3853
305,3,False,left,approach,neg,insect26_crop.jpg,4,31,1.0,304.0,20.0,31.0,EAT                                    DON'T EAT,3528.76,3516.6665,3288.613,1,3529.617
306,3,False,left,approach,neg,insect29_crop.jpg,4,31,1.0,305.0,20.0,31.0,EAT                                    DON'T EAT,3530.7783,3516.6665,3288.613,1,3531.4539
307,3,False,left,approach,neg,insect30_crop.jpg,4,31,1.0,306.0,20.0,31.0,EAT                                    DON'T EAT,3532.7964,3516.6665,3288.613,1,3533.6025
308,3,True,left,avoid,pos,meat22_crop.jpg,4,31,1.0,307.0,20.0,31.0,EAT                                    DON'T EAT,3534.815,3516.6665,3288.613,--,--
309,3,False,left,approach,neg,insect33_crop.jpg,4,31,1.0,308.0,20.0,31.0,EAT                                    DON'T EAT,3536.8333,3516.6665,3288.613,1,3537.5667
310,3,False,left,approach,neg,insect14_crop.jpg,4,31,1.0,309.0,20.0,31.0,EAT                                    DON'T EAT,3538.8518,3516.6665,3288.613,1,3539.6147
311,0,True,right,approach,pos,cake38_crop.jpg,4,32,1.0,310.0,20.0,32.0,EAT                                    DON'T EAT,3557.117,3553.0964,3288.613,1,3557.9114
312,0,False,right,avoid,neg,fungus7_crop.jpg,4,32,1.0,311.0,20.0,32.0,EAT                                    DON'T EAT,3559.135,3553.0964,3288.613,--,--
313,0,False,right,avoid,neg,fungus27_crop.jpg,4,32,1.0,312.0,20.0,32.0,EAT                                    DON'T EAT,3561.1536,3553.0964,3288.613,--,--
314,0,False,right,avoid,neg,fungus25_crop.jpg,4,32,1.0,313.0,20.0,32.0,EAT                                    DON'T EAT,3563.1714,3553.0964,3288.613,--,--
315,0,True,right,approach,neg,insect18_crop.jpg,4,32,1.0,314.0,20.0,32.0,EAT                                    DON'T EAT,3565.1904,3553.0964,3288.613,1,3566.08
316,0,False,right,avoid,neg,fungus22_crop.jpg,4,32,1.0,315.0,20.0,32.0,EAT                                    DON'T EAT,3567.2087,3553.0964,3288.613,--,--
317,0,False,right,avoid,neg,fungus24_crop.jpg,4,32,1.0,316.0,20.0,32.0,EAT                                    DON'T EAT,3569.227,3553.0964,3288.613,--,--
318,0,False,right,avoid,neg,fungus37_crop.jpg,4,32,1.0,317.0,20.0,32.0,EAT                                    DON'T EAT,3571.2454,3553.0964,3288.613,--,--
319,0,False,right,avoid,neg,fungus32_crop.jpg,4,32,1.0,318.0,20.0,32.0,EAT                                    DON'T EAT,3573.2632,3553.0964,3288.613,--,--
320,0,False,right,avoid,neg,fungus10_crop.jpg,4,32,1.0,319.0,20.0,32.0,EAT                                    DON'T EAT,3575.2817,3553.0964,3288.613,--,--
