TrialNumber,n_block,catch,hand,mot,val,stim_name,run_number,num_block,ran,order,response,RT,Subject number,n_b,left_side_resp_label,trial_onset,blk_instr_onset,baseline_onset
1,2,False,right,approach,pos,cake11_crop.jpg,1,1,1.0,0.0,1,97.27066,122.0,1.0,EAT                                    DON'T EAT,95.97158,91.951584,78.35645
2,2,True,right,avoid,neg,fungus36_crop.jpg,1,1,1.0,1.0,2,99.672356,122.0,1.0,EAT                                    DON'T EAT,97.990105,91.951584,78.35645
3,2,False,right,approach,pos,cake30_crop.jpg,1,1,1.0,2.0,1,101.00967,122.0,1.0,EAT                                    DON'T EAT,100.008255,91.951584,78.35645
4,2,False,right,approach,pos,cake10_crop.jpg,1,1,1.0,3.0,1,103.89863,122.0,1.0,EAT                                    DON'T EAT,102.0266,91.951584,78.35645
5,2,False,right,approach,pos,cake38_crop.jpg,1,1,1.0,4.0,1,105.028534,122.0,1.0,EAT                                    DON'T EAT,104.04495,91.951584,78.35645
6,2,False,right,approach,pos,cake28_crop.jpg,1,1,1.0,5.0,1,107.50387,122.0,1.0,EAT                                    DON'T EAT,106.06918,91.951584,78.35645
7,2,True,right,avoid,pos,meat14_crop.jpg,1,1,1.0,6.0,2,109.37127,122.0,1.0,EAT                                    DON'T EAT,108.08424,91.951584,78.35645
8,2,False,right,approach,pos,cake4_crop.jpg,1,1,1.0,7.0,1,111.539696,122.0,1.0,EAT                                    DON'T EAT,110.10001,91.951584,78.35645
9,2,False,right,approach,pos,cake34_crop.jpg,1,1,1.0,8.0,--,--,122.0,1.0,EAT                                    DON'T EAT,112.118484,91.951584,78.35645
10,2,False,right,approach,pos,cake13_crop.jpg,1,1,1.0,9.0,1,115.19361,122.0,1.0,EAT                                    DON'T EAT,114.13655,91.951584,78.35645
11,2,True,right,approach,pos,cake29_crop.jpg,1,2,1.0,10.0,1,134.90065,122.0,2.0,EAT                                    DON'T EAT,133.8865,129.86644,78.35645
12,2,False,right,avoid,pos,meat29_crop.jpg,1,2,1.0,11.0,2,137.19336,122.0,2.0,EAT                                    DON'T EAT,135.90495,129.86644,78.35645
13,2,False,right,avoid,pos,meat38_crop.jpg,1,2,1.0,12.0,2,138.85379,122.0,2.0,EAT                                    DON'T EAT,137.92305,129.86644,78.35645
14,2,False,right,avoid,pos,meat15_crop.jpg,1,2,1.0,13.0,2,140.96465,122.0,2.0,EAT                                    DON'T EAT,139.9414,129.86644,78.35645
15,2,True,right,approach,neg,insect36_crop.jpg,1,2,1.0,14.0,1,143.79674,122.0,2.0,EAT                                    DON'T EAT,141.95978,129.86644,78.35645
16,2,False,right,avoid,pos,meat36_crop.jpg,1,2,1.0,15.0,2,144.98207,122.0,2.0,EAT                                    DON'T EAT,143.97826,129.86644,78.35645
17,2,False,right,avoid,pos,meat24_crop.jpg,1,2,1.0,16.0,2,146.91641,122.0,2.0,EAT                                    DON'T EAT,145.99655,129.86644,78.35645
18,2,False,right,avoid,pos,meat12_crop.jpg,1,2,1.0,17.0,2,148.8618,122.0,2.0,EAT                                    DON'T EAT,148.01483,129.86644,78.35645
19,2,False,right,avoid,pos,meat19_crop.jpg,1,2,1.0,18.0,2,150.72421,122.0,2.0,EAT                                    DON'T EAT,150.03313,129.86644,78.35645
20,2,False,right,avoid,pos,meat39_crop.jpg,1,2,1.0,19.0,2,153.12177,122.0,2.0,EAT                                    DON'T EAT,152.05151,129.86644,78.35645
21,0,False,right,avoid,pos,meat20_crop.jpg,1,3,1.0,20.0,2,170.08066,122.0,3.0,EAT                                    DON'T EAT,169.09879,165.07884,78.35645
22,0,False,right,avoid,pos,meat11_crop.jpg,1,3,1.0,21.0,2,171.83505,122.0,3.0,EAT                                    DON'T EAT,171.11687,165.07884,78.35645
23,0,True,right,approach,pos,cake9_crop.jpg,1,3,1.0,22.0,1,174.0547,122.0,3.0,EAT                                    DON'T EAT,173.13574,165.07884,78.35645
24,0,False,right,avoid,pos,meat33_crop.jpg,1,3,1.0,23.0,2,176.47496,122.0,3.0,EAT                                    DON'T EAT,175.154,165.07884,78.35645
25,0,False,right,avoid,pos,meat31_crop.jpg,1,3,1.0,24.0,2,177.9856,122.0,3.0,EAT                                    DON'T EAT,177.17236,165.07884,78.35645
26,0,False,right,avoid,pos,meat7_crop.jpg,1,3,1.0,25.0,2,179.98277,122.0,3.0,EAT                                    DON'T EAT,179.19064,165.07884,78.35645
27,0,False,right,avoid,pos,meat18_crop.jpg,1,3,1.0,26.0,2,182.2097,122.0,3.0,EAT                                    DON'T EAT,181.20891,165.07884,78.35645
28,0,False,right,avoid,pos,meat8_crop.jpg,1,3,1.0,27.0,2,183.88284,122.0,3.0,EAT                                    DON'T EAT,183.22765,165.07884,78.35645
29,0,True,right,approach,neg,insect40_crop.jpg,1,3,1.0,28.0,1,186.41083,122.0,3.0,EAT                                    DON'T EAT,185.24583,165.07884,78.35645
30,0,False,right,avoid,pos,meat25_crop.jpg,1,3,1.0,29.0,2,188.35286,122.0,3.0,EAT                                    DON'T EAT,187.26422,165.07884,78.35645
31,3,True,left,avoid,neg,fungus27_crop.jpg,1,4,1.0,30.0,2,205.96373,122.0,4.0,EAT                                    DON'T EAT,204.67874,200.65865,78.35645
32,3,False,left,approach,pos,cake40_crop.jpg,1,4,1.0,31.0,1,207.63937,122.0,4.0,EAT                                    DON'T EAT,206.69705,200.65865,78.35645
33,3,False,left,approach,pos,cake17_crop.jpg,1,4,1.0,32.0,1,209.50757,122.0,4.0,EAT                                    DON'T EAT,208.71533,200.65865,78.35645
34,3,False,left,approach,pos,cake13_crop.jpg,1,4,1.0,33.0,1,211.40872,122.0,4.0,EAT                                    DON'T EAT,210.73366,200.65865,78.35645
35,3,False,left,approach,pos,cake8_crop.jpg,1,4,1.0,34.0,1,213.45961,122.0,4.0,EAT                                    DON'T EAT,212.75189,200.65865,78.35645
36,3,False,left,approach,pos,cake29_crop.jpg,1,4,1.0,35.0,1,215.44743,122.0,4.0,EAT                                    DON'T EAT,214.7701,200.65865,78.35645
37,3,False,left,approach,pos,cake19_crop.jpg,1,4,1.0,36.0,1,217.39116,122.0,4.0,EAT                                    DON'T EAT,216.78868,200.65865,78.35645
38,3,False,left,approach,pos,cake25_crop.jpg,1,4,1.0,37.0,1,219.45265,122.0,4.0,EAT                                    DON'T EAT,218.80699,200.65865,78.35645
39,3,True,left,avoid,pos,meat3_crop.jpg,1,4,1.0,38.0,2,221.98776,122.0,4.0,EAT                                    DON'T EAT,220.82527,200.65865,78.35645
40,3,False,left,approach,pos,cake10_crop.jpg,1,4,1.0,39.0,1,223.8597,122.0,4.0,EAT                                    DON'T EAT,222.84364,200.65865,78.35645
41,1,False,right,approach,neg,insect16_crop.jpg,1,5,1.0,40.0,1,243.35101,122.0,5.0,EAT                                    DON'T EAT,242.52666,238.50671,78.35645
42,1,True,right,avoid,pos,meat32_crop.jpg,1,5,1.0,41.0,2,245.36769,122.0,5.0,EAT                                    DON'T EAT,244.54477,238.50671,78.35645
43,1,False,right,approach,neg,insect5_crop.jpg,1,5,1.0,42.0,1,247.36646,122.0,5.0,EAT                                    DON'T EAT,246.56287,238.50671,78.35645
44,1,False,right,approach,neg,insect1_crop.jpg,1,5,1.0,43.0,1,249.26645,122.0,5.0,EAT                                    DON'T EAT,248.58159,238.50671,78.35645
45,1,False,right,approach,neg,insect9_crop.jpg,1,5,1.0,44.0,1,251.21196,122.0,5.0,EAT                                    DON'T EAT,250.59995,238.50671,78.35645
46,1,False,right,approach,neg,insect33_crop.jpg,1,5,1.0,45.0,1,253.33578,122.0,5.0,EAT                                    DON'T EAT,252.61841,238.50671,78.35645
47,1,False,right,approach,neg,insect17_crop.jpg,1,5,1.0,46.0,1,255.32571,122.0,5.0,EAT                                    DON'T EAT,254.63667,238.50671,78.35645
48,1,True,right,avoid,neg,fungus14_crop.jpg,1,5,1.0,47.0,2,257.79553,122.0,5.0,EAT                                    DON'T EAT,256.65503,238.50671,78.35645
49,1,False,right,approach,neg,insect25_crop.jpg,1,5,1.0,48.0,1,259.47525,122.0,5.0,EAT                                    DON'T EAT,258.6735,238.50671,78.35645
50,1,False,right,approach,neg,insect15_crop.jpg,1,5,1.0,49.0,1,261.3645,122.0,5.0,EAT                                    DON'T EAT,260.6917,238.50671,78.35645
51,2,False,left,approach,pos,cake18_crop.jpg,1,6,1.0,50.0,1,278.3695,122.0,6.0,EAT                                    DON'T EAT,276.9719,272.95187,78.35645
52,2,False,left,approach,pos,cake32_crop.jpg,1,6,1.0,51.0,1,279.8991,122.0,6.0,EAT                                    DON'T EAT,278.99026,272.95187,78.35645
53,2,False,left,approach,pos,cake38_crop.jpg,1,6,1.0,52.0,1,281.76773,122.0,6.0,EAT                                    DON'T EAT,281.00873,272.95187,78.35645
54,2,False,left,approach,pos,cake26_crop.jpg,1,6,1.0,53.0,1,283.67355,122.0,6.0,EAT                                    DON'T EAT,283.02686,272.95187,78.35645
55,2,False,left,approach,pos,cake28_crop.jpg,1,6,1.0,54.0,1,285.71243,122.0,6.0,EAT                                    DON'T EAT,285.0453,272.95187,78.35645
56,2,False,left,approach,pos,cake23_crop.jpg,1,6,1.0,55.0,1,287.854,122.0,6.0,EAT                                    DON'T EAT,287.06363,272.95187,78.35645
57,2,False,left,approach,pos,cake27_crop.jpg,1,6,1.0,56.0,1,289.80963,122.0,6.0,EAT                                    DON'T EAT,289.08188,272.95187,78.35645
58,2,False,left,approach,pos,cake22_crop.jpg,1,6,1.0,57.0,1,292.00635,122.0,6.0,EAT                                    DON'T EAT,291.10004,272.95187,78.35645
59,2,True,left,avoid,neg,fungus17_crop.jpg,1,6,1.0,58.0,2,294.23645,122.0,6.0,EAT                                    DON'T EAT,293.11868,272.95187,78.35645
60,2,True,left,avoid,pos,meat38_crop.jpg,1,6,1.0,59.0,2,295.98288,122.0,6.0,EAT                                    DON'T EAT,295.137,272.95187,78.35645
61,3,False,left,approach,neg,insect18_crop.jpg,1,7,1.0,60.0,1,312.53622,122.0,7.0,EAT                                    DON'T EAT,311.56732,307.5471,78.35645
62,3,False,left,approach,neg,insect4_crop.jpg,1,7,1.0,61.0,1,314.36996,122.0,7.0,EAT                                    DON'T EAT,313.58493,307.5471,78.35645
63,3,False,left,approach,neg,insect10_crop.jpg,1,7,1.0,62.0,1,316.27148,122.0,7.0,EAT                                    DON'T EAT,315.6036,307.5471,78.35645
64,3,True,left,avoid,pos,meat37_crop.jpg,1,7,1.0,63.0,2,318.65552,122.0,7.0,EAT                                    DON'T EAT,317.6223,307.5471,78.35645
65,3,True,left,avoid,neg,fungus21_crop.jpg,1,7,1.0,64.0,2,320.54642,122.0,7.0,EAT                                    DON'T EAT,319.6407,307.5471,78.35645
66,3,False,left,approach,neg,insect16_crop.jpg,1,7,1.0,65.0,1,322.39014,122.0,7.0,EAT                                    DON'T EAT,321.65887,307.5471,78.35645
67,3,False,left,approach,neg,insect14_crop.jpg,1,7,1.0,66.0,1,324.29227,122.0,7.0,EAT                                    DON'T EAT,323.67746,307.5471,78.35645
68,3,False,left,approach,neg,insect2_crop.jpg,1,7,1.0,67.0,1,326.54068,122.0,7.0,EAT                                    DON'T EAT,325.69568,307.5471,78.35645
69,3,False,left,approach,neg,insect19_crop.jpg,1,7,1.0,68.0,1,328.28418,122.0,7.0,EAT                                    DON'T EAT,327.71402,307.5471,78.35645
70,3,False,left,approach,neg,insect11_crop.jpg,1,7,1.0,69.0,1,330.19748,122.0,7.0,EAT                                    DON'T EAT,329.73233,307.5471,78.35645
71,1,False,right,approach,pos,cake5_crop.jpg,1,8,1.0,70.0,1,349.80353,122.0,8.0,EAT                                    DON'T EAT,348.7815,344.76157,78.35645
72,1,False,right,approach,pos,cake22_crop.jpg,1,8,1.0,71.0,1,351.46448,122.0,8.0,EAT                                    DON'T EAT,350.79984,344.76157,78.35645
73,1,False,right,approach,pos,cake15_crop.jpg,1,8,1.0,72.0,1,353.5943,122.0,8.0,EAT                                    DON'T EAT,352.8177,344.76157,78.35645
74,1,True,right,avoid,pos,meat6_crop.jpg,1,8,1.0,73.0,2,355.71338,122.0,8.0,EAT                                    DON'T EAT,354.83627,344.76157,78.35645
75,1,False,right,approach,pos,cake25_crop.jpg,1,8,1.0,74.0,1,357.68958,122.0,8.0,EAT                                    DON'T EAT,356.8549,344.76157,78.35645
76,1,False,right,approach,pos,cake17_crop.jpg,1,8,1.0,75.0,1,359.64355,122.0,8.0,EAT                                    DON'T EAT,358.87326,344.76157,78.35645
77,1,False,right,approach,pos,cake2_crop.jpg,1,8,1.0,76.0,1,361.6701,122.0,8.0,EAT                                    DON'T EAT,360.8914,344.76157,78.35645
78,1,True,right,avoid,neg,fungus20_crop.jpg,1,8,1.0,77.0,2,363.79648,122.0,8.0,EAT                                    DON'T EAT,362.9099,344.76157,78.35645
79,1,False,right,approach,pos,cake12_crop.jpg,1,8,1.0,78.0,1,365.79514,122.0,8.0,EAT                                    DON'T EAT,364.92834,344.76157,78.35645
80,1,False,right,approach,pos,cake26_crop.jpg,1,8,1.0,79.0,1,367.70966,122.0,8.0,EAT                                    DON'T EAT,366.94672,344.76157,78.35645
81,2,False,left,avoid,pos,meat25_crop.jpg,2,9,1.0,80.0,2,465.95255,122.0,9.0,EAT                                    DON'T EAT,464.81113,460.7911,448.83435
82,2,False,left,avoid,pos,meat32_crop.jpg,2,9,1.0,81.0,2,467.47406,122.0,9.0,EAT                                    DON'T EAT,466.8295,460.7911,448.83435
83,2,True,left,approach,neg,insect26_crop.jpg,2,9,1.0,82.0,1,469.74463,122.0,9.0,EAT                                    DON'T EAT,468.8476,460.7911,448.83435
84,2,False,left,avoid,pos,meat28_crop.jpg,2,9,1.0,83.0,2,471.61768,122.0,9.0,EAT                                    DON'T EAT,470.8662,460.7911,448.83435
85,2,False,left,avoid,pos,meat35_crop.jpg,2,9,1.0,84.0,2,473.54926,122.0,9.0,EAT                                    DON'T EAT,472.88452,460.7911,448.83435
86,2,False,left,avoid,pos,meat12_crop.jpg,2,9,1.0,85.0,2,475.70917,122.0,9.0,EAT                                    DON'T EAT,474.90295,460.7911,448.83435
87,2,False,left,avoid,pos,meat23_crop.jpg,2,9,1.0,86.0,2,477.60867,122.0,9.0,EAT                                    DON'T EAT,476.92126,460.7911,448.83435
88,2,True,left,approach,pos,cake5_crop.jpg,2,9,1.0,87.0,1,479.86017,122.0,9.0,EAT                                    DON'T EAT,478.93958,460.7911,448.83435
89,2,False,left,avoid,pos,meat36_crop.jpg,2,9,1.0,88.0,2,481.75162,122.0,9.0,EAT                                    DON'T EAT,480.95804,460.7911,448.83435
90,2,False,left,avoid,pos,meat22_crop.jpg,2,9,1.0,89.0,2,483.74863,122.0,9.0,EAT                                    DON'T EAT,482.9763,460.7911,448.83435
91,0,False,left,avoid,neg,fungus28_crop.jpg,2,10,1.0,90.0,2,502.2263,122.0,10.0,EAT                                    DON'T EAT,501.25827,497.23813,448.83435
92,0,True,left,approach,pos,cake6_crop.jpg,2,10,1.0,91.0,1,504.12155,122.0,10.0,EAT                                    DON'T EAT,503.2764,497.23813,448.83435
93,0,False,left,avoid,neg,fungus24_crop.jpg,2,10,1.0,92.0,2,506.03442,122.0,10.0,EAT                                    DON'T EAT,505.29456,497.23813,448.83435
94,0,False,left,avoid,neg,fungus6_crop.jpg,2,10,1.0,93.0,2,508.62592,122.0,10.0,EAT                                    DON'T EAT,507.3131,497.23813,448.83435
95,0,False,left,avoid,neg,fungus11_crop.jpg,2,10,1.0,94.0,--,--,122.0,10.0,EAT                                    DON'T EAT,509.3314,497.23813,448.83435
96,0,True,left,approach,neg,insect33_crop.jpg,2,10,1.0,95.0,2,511.52924,122.0,10.0,EAT                                    DON'T EAT,511.3498,497.23813,448.83435
97,0,False,left,avoid,neg,fungus39_crop.jpg,2,10,1.0,96.0,2,514.80493,122.0,10.0,EAT                                    DON'T EAT,513.3679,497.23813,448.83435
98,0,False,left,avoid,neg,fungus10_crop.jpg,2,10,1.0,97.0,2,516.2765,122.0,10.0,EAT                                    DON'T EAT,515.38654,497.23813,448.83435
99,0,False,left,avoid,neg,fungus13_crop.jpg,2,10,1.0,98.0,2,518.14307,122.0,10.0,EAT                                    DON'T EAT,517.40485,497.23813,448.83435
100,0,False,left,avoid,neg,fungus36_crop.jpg,2,10,1.0,99.0,2,520.1426,122.0,10.0,EAT                                    DON'T EAT,519.4233,497.23813,448.83435
101,2,True,left,avoid,neg,fungus22_crop.jpg,2,11,1.0,100.0,2,538.2631,122.0,11.0,EAT                                    DON'T EAT,537.45483,533.43494,448.83435
102,2,False,left,approach,neg,insect31_crop.jpg,2,11,1.0,101.0,1,540.2864,122.0,11.0,EAT                                    DON'T EAT,539.47314,533.43494,448.83435
103,2,False,left,approach,neg,insect30_crop.jpg,2,11,1.0,102.0,1,542.12317,122.0,11.0,EAT                                    DON'T EAT,541.4915,533.43494,448.83435
104,2,False,left,approach,neg,insect22_crop.jpg,2,11,1.0,103.0,1,544.3123,122.0,11.0,EAT                                    DON'T EAT,543.5096,533.43494,448.83435
105,2,False,left,approach,neg,insect37_crop.jpg,2,11,1.0,104.0,1,546.2192,122.0,11.0,EAT                                    DON'T EAT,545.5284,533.43494,448.83435
106,2,False,left,approach,neg,insect34_crop.jpg,2,11,1.0,105.0,1,548.1733,122.0,11.0,EAT                                    DON'T EAT,547.5467,533.43494,448.83435
107,2,False,left,approach,neg,insect15_crop.jpg,2,11,1.0,106.0,1,550.1223,122.0,11.0,EAT                                    DON'T EAT,549.56476,533.43494,448.83435
108,2,False,left,approach,neg,insect13_crop.jpg,2,11,1.0,107.0,1,552.1261,122.0,11.0,EAT                                    DON'T EAT,551.5832,533.43494,448.83435
109,2,False,left,approach,neg,insect23_crop.jpg,2,11,1.0,108.0,1,554.3197,122.0,11.0,EAT                                    DON'T EAT,553.60156,533.43494,448.83435
110,2,True,left,avoid,pos,meat8_crop.jpg,2,11,1.0,109.0,2,556.5703,122.0,11.0,EAT                                    DON'T EAT,555.6198,533.43494,448.83435
111,1,True,left,avoid,pos,meat2_crop.jpg,2,12,1.0,110.0,2,573.99927,122.0,12.0,EAT                                    DON'T EAT,573.0177,568.9975,448.83435
112,1,False,left,approach,neg,insect1_crop.jpg,2,12,1.0,111.0,1,575.78674,122.0,12.0,EAT                                    DON'T EAT,575.03625,568.9975,448.83435
113,1,True,left,avoid,neg,fungus25_crop.jpg,2,12,1.0,112.0,2,578.20135,122.0,12.0,EAT                                    DON'T EAT,577.0543,568.9975,448.83435
114,1,False,left,approach,neg,insect35_crop.jpg,2,12,1.0,113.0,1,580.1737,122.0,12.0,EAT                                    DON'T EAT,579.07275,568.9975,448.83435
115,1,False,left,approach,neg,insect9_crop.jpg,2,12,1.0,114.0,1,581.71405,122.0,12.0,EAT                                    DON'T EAT,581.09106,568.9975,448.83435
116,1,False,left,approach,neg,insect28_crop.jpg,2,12,1.0,115.0,1,584.0557,122.0,12.0,EAT                                    DON'T EAT,583.10944,568.9975,448.83435
117,1,False,left,approach,neg,insect7_crop.jpg,2,12,1.0,116.0,1,585.7407,122.0,12.0,EAT                                    DON'T EAT,585.12775,568.9975,448.83435
118,1,False,left,approach,neg,insect5_crop.jpg,2,12,1.0,117.0,1,587.7195,122.0,12.0,EAT                                    DON'T EAT,587.14606,568.9975,448.83435
119,1,False,left,approach,neg,insect36_crop.jpg,2,12,1.0,118.0,1,590.7377,122.0,12.0,EAT                                    DON'T EAT,589.1641,568.9975,448.83435
120,1,False,left,approach,neg,insect38_crop.jpg,2,12,1.0,119.0,1,592.1416,122.0,12.0,EAT                                    DON'T EAT,591.1827,568.9975,448.83435
121,1,True,left,approach,neg,insect17_crop.jpg,2,13,1.0,120.0,1,612.1549,122.0,13.0,EAT                                    DON'T EAT,611.0991,607.07904,448.83435
122,1,False,left,avoid,pos,meat39_crop.jpg,2,13,1.0,121.0,2,614.03485,122.0,13.0,EAT                                    DON'T EAT,613.11774,607.07904,448.83435
123,1,False,left,avoid,pos,meat7_crop.jpg,2,13,1.0,122.0,2,616.0487,122.0,13.0,EAT                                    DON'T EAT,615.13605,607.07904,448.83435
124,1,False,left,avoid,pos,meat18_crop.jpg,2,13,1.0,123.0,2,617.75507,122.0,13.0,EAT                                    DON'T EAT,617.1543,607.07904,448.83435
125,1,True,left,approach,pos,cake16_crop.jpg,2,13,1.0,124.0,1,619.9087,122.0,13.0,EAT                                    DON'T EAT,619.1726,607.07904,448.83435
126,1,False,left,avoid,pos,meat40_crop.jpg,2,13,1.0,125.0,2,621.9097,122.0,13.0,EAT                                    DON'T EAT,621.1909,607.07904,448.83435
127,1,False,left,avoid,pos,meat26_crop.jpg,2,13,1.0,126.0,2,623.8532,122.0,13.0,EAT                                    DON'T EAT,623.2091,607.07904,448.83435
128,1,False,left,avoid,pos,meat10_crop.jpg,2,13,1.0,127.0,2,625.92737,122.0,13.0,EAT                                    DON'T EAT,625.2278,607.07904,448.83435
129,1,False,left,avoid,pos,meat5_crop.jpg,2,13,1.0,128.0,2,627.99646,122.0,13.0,EAT                                    DON'T EAT,627.2461,607.07904,448.83435
130,1,False,left,avoid,pos,meat24_crop.jpg,2,13,1.0,129.0,2,629.9292,122.0,13.0,EAT                                    DON'T EAT,629.2641,607.07904,448.83435
131,3,True,right,approach,neg,insect2_crop.jpg,2,14,1.0,130.0,1,650.3733,122.0,14.0,EAT                                    DON'T EAT,649.1808,645.1608,448.83435
132,3,False,right,avoid,neg,fungus5_crop.jpg,2,14,1.0,131.0,2,652.3284,122.0,14.0,EAT                                    DON'T EAT,651.1993,645.1608,448.83435
133,3,False,right,avoid,neg,fungus19_crop.jpg,2,14,1.0,132.0,2,653.8808,122.0,14.0,EAT                                    DON'T EAT,653.21765,645.1608,448.83435
134,3,False,right,avoid,neg,fungus12_crop.jpg,2,14,1.0,133.0,2,655.9192,122.0,14.0,EAT                                    DON'T EAT,655.23535,645.1608,448.83435
135,3,False,right,avoid,neg,fungus7_crop.jpg,2,14,1.0,134.0,2,657.88367,122.0,14.0,EAT                                    DON'T EAT,657.25446,645.1608,448.83435
136,3,False,right,avoid,neg,fungus10_crop.jpg,2,14,1.0,135.0,2,659.83234,122.0,14.0,EAT                                    DON'T EAT,659.2726,645.1608,448.83435
137,3,True,right,approach,pos,cake23_crop.jpg,2,14,1.0,136.0,1,662.07245,122.0,14.0,EAT                                    DON'T EAT,661.2909,645.1608,448.83435
138,3,False,right,avoid,neg,fungus29_crop.jpg,2,14,1.0,137.0,2,664.7764,122.0,14.0,EAT                                    DON'T EAT,663.3091,645.1608,448.83435
139,3,False,right,avoid,neg,fungus2_crop.jpg,2,14,1.0,138.0,2,666.12305,122.0,14.0,EAT                                    DON'T EAT,665.32776,645.1608,448.83435
140,3,False,right,avoid,neg,fungus18_crop.jpg,2,14,1.0,139.0,2,668.0236,122.0,14.0,EAT                                    DON'T EAT,667.34607,645.1608,448.83435
141,0,False,right,approach,neg,insect26_crop.jpg,2,15,1.0,140.0,1,688.20764,122.0,15.0,EAT                                    DON'T EAT,687.296,683.2759,448.83435
142,0,False,right,approach,neg,insect30_crop.jpg,2,15,1.0,141.0,1,689.90967,122.0,15.0,EAT                                    DON'T EAT,689.3141,683.2759,448.83435
143,0,True,right,avoid,pos,meat10_crop.jpg,2,15,1.0,142.0,2,692.1605,122.0,15.0,EAT                                    DON'T EAT,691.3326,683.2759,448.83435
144,0,False,right,approach,neg,insect4_crop.jpg,2,15,1.0,143.0,1,694.04565,122.0,15.0,EAT                                    DON'T EAT,693.3508,683.2759,448.83435
145,0,True,right,avoid,neg,fungus25_crop.jpg,2,15,1.0,144.0,2,696.0556,122.0,15.0,EAT                                    DON'T EAT,695.36896,683.2759,448.83435
146,0,False,right,approach,neg,insect38_crop.jpg,2,15,1.0,145.0,1,698.1478,122.0,15.0,EAT                                    DON'T EAT,697.3877,683.2759,448.83435
147,0,False,right,approach,neg,insect23_crop.jpg,2,15,1.0,146.0,1,700.23065,122.0,15.0,EAT                                    DON'T EAT,699.40594,683.2759,448.83435
148,0,False,right,approach,neg,insect13_crop.jpg,2,15,1.0,147.0,1,702.13135,122.0,15.0,EAT                                    DON'T EAT,701.4244,683.2759,448.83435
149,0,False,right,approach,neg,insect19_crop.jpg,2,15,1.0,148.0,1,704.1706,122.0,15.0,EAT                                    DON'T EAT,703.44226,683.2759,448.83435
150,0,False,right,approach,neg,insect10_crop.jpg,2,15,1.0,149.0,1,706.0344,122.0,15.0,EAT                                    DON'T EAT,705.46094,683.2759,448.83435
151,2,False,right,avoid,neg,fungus37_crop.jpg,2,16,1.0,150.0,2,726.8214,122.0,16.0,EAT                                    DON'T EAT,725.3607,721.3407,448.83435
152,2,False,right,avoid,neg,fungus3_crop.jpg,2,16,1.0,151.0,2,728.24445,122.0,16.0,EAT                                    DON'T EAT,727.3789,721.3407,448.83435
153,2,False,right,avoid,neg,fungus26_crop.jpg,2,16,1.0,152.0,2,730.135,122.0,16.0,EAT                                    DON'T EAT,729.3975,721.3407,448.83435
154,2,True,right,approach,neg,insect14_crop.jpg,2,16,1.0,153.0,1,732.15564,122.0,16.0,EAT                                    DON'T EAT,731.41583,721.3407,448.83435
155,2,False,right,avoid,neg,fungus40_crop.jpg,2,16,1.0,154.0,2,734.1864,122.0,16.0,EAT                                    DON'T EAT,733.43414,721.3407,448.83435
156,2,False,right,avoid,neg,fungus33_crop.jpg,2,16,1.0,155.0,2,736.1962,122.0,16.0,EAT                                    DON'T EAT,735.45245,721.3407,448.83435
157,2,False,right,avoid,neg,fungus9_crop.jpg,2,16,1.0,156.0,2,738.07263,122.0,16.0,EAT                                    DON'T EAT,737.47076,721.3407,448.83435
158,2,False,right,avoid,neg,fungus28_crop.jpg,2,16,1.0,157.0,2,740.3323,122.0,16.0,EAT                                    DON'T EAT,739.4889,721.3407,448.83435
159,2,True,right,approach,pos,cake21_crop.jpg,2,16,1.0,158.0,1,742.49915,122.0,16.0,EAT                                    DON'T EAT,741.5076,721.3407,448.83435
160,2,False,right,avoid,neg,fungus16_crop.jpg,2,16,1.0,159.0,2,744.29504,122.0,16.0,EAT                                    DON'T EAT,743.52594,721.3407,448.83435
161,3,False,right,avoid,pos,meat9_crop.jpg,3,17,1.0,160.0,2,834.86163,122.0,17.0,EAT                                    DON'T EAT,833.76764,829.74713,819.4802
162,3,False,right,avoid,pos,meat3_crop.jpg,3,17,1.0,161.0,2,836.5041,122.0,17.0,EAT                                    DON'T EAT,835.78564,829.74713,819.4802
163,3,False,right,avoid,pos,meat16_crop.jpg,3,17,1.0,162.0,2,838.3759,122.0,17.0,EAT                                    DON'T EAT,837.8042,829.74713,819.4802
164,3,False,right,avoid,pos,meat34_crop.jpg,3,17,1.0,163.0,2,840.4048,122.0,17.0,EAT                                    DON'T EAT,839.8225,829.74713,819.4802
165,3,True,right,approach,neg,insect34_crop.jpg,3,17,1.0,164.0,1,842.683,122.0,17.0,EAT                                    DON'T EAT,841.84076,829.74713,819.4802
166,3,True,right,approach,pos,cake1_crop.jpg,3,17,1.0,165.0,1,844.7636,122.0,17.0,EAT                                    DON'T EAT,843.85895,829.74713,819.4802
167,3,False,right,avoid,pos,meat5_crop.jpg,3,17,1.0,166.0,2,846.78644,122.0,17.0,EAT                                    DON'T EAT,845.8776,829.74713,819.4802
168,3,False,right,avoid,pos,meat23_crop.jpg,3,17,1.0,167.0,2,848.54047,122.0,17.0,EAT                                    DON'T EAT,847.89594,829.74713,819.4802
169,3,False,right,avoid,pos,meat1_crop.jpg,3,17,1.0,168.0,2,851.49023,122.0,17.0,EAT                                    DON'T EAT,849.9139,829.74713,819.4802
170,3,False,right,avoid,pos,meat22_crop.jpg,3,17,1.0,169.0,2,852.63025,122.0,17.0,EAT                                    DON'T EAT,851.93256,829.74713,819.4802
171,2,False,left,avoid,neg,fungus3_crop.jpg,3,18,1.0,170.0,2,871.1176,122.0,18.0,EAT                                    DON'T EAT,870.29785,866.2779,819.4802
172,2,False,left,avoid,neg,fungus35_crop.jpg,3,18,1.0,171.0,2,873.2134,122.0,18.0,EAT                                    DON'T EAT,872.3162,866.2779,819.4802
173,2,True,left,approach,pos,cake1_crop.jpg,3,18,1.0,172.0,1,875.1137,122.0,18.0,EAT                                    DON'T EAT,874.33453,866.2779,819.4802
174,2,False,left,avoid,neg,fungus15_crop.jpg,3,18,1.0,173.0,2,877.2409,122.0,18.0,EAT                                    DON'T EAT,876.3528,866.2779,819.4802
175,2,False,left,avoid,neg,fungus12_crop.jpg,3,18,1.0,174.0,2,878.98553,122.0,18.0,EAT                                    DON'T EAT,878.37115,866.2779,819.4802
176,2,False,left,avoid,neg,fungus30_crop.jpg,3,18,1.0,175.0,2,881.2538,122.0,18.0,EAT                                    DON'T EAT,880.38947,866.2779,819.4802
177,2,True,left,approach,neg,insect21_crop.jpg,3,18,1.0,176.0,1,883.1396,122.0,18.0,EAT                                    DON'T EAT,882.40796,866.2779,819.4802
178,2,False,left,avoid,neg,fungus33_crop.jpg,3,18,1.0,177.0,2,885.30176,122.0,18.0,EAT                                    DON'T EAT,884.42633,866.2779,819.4802
179,2,False,left,avoid,neg,fungus16_crop.jpg,3,18,1.0,178.0,2,887.1886,122.0,18.0,EAT                                    DON'T EAT,886.44464,866.2779,819.4802
180,2,False,left,avoid,neg,fungus2_crop.jpg,3,18,1.0,179.0,2,889.1822,122.0,18.0,EAT                                    DON'T EAT,888.4629,866.2779,819.4802
181,0,False,left,approach,pos,cake20_crop.jpg,3,19,1.0,180.0,1,906.9012,122.0,19.0,EAT                                    DON'T EAT,905.894,901.8741,819.4802
182,0,False,left,approach,pos,cake2_crop.jpg,3,19,1.0,181.0,1,908.5494,122.0,19.0,EAT                                    DON'T EAT,907.91235,901.8741,819.4802
183,0,False,left,approach,pos,cake9_crop.jpg,3,19,1.0,182.0,1,910.6188,122.0,19.0,EAT                                    DON'T EAT,909.9306,901.8741,819.4802
184,0,False,left,approach,pos,cake37_crop.jpg,3,19,1.0,183.0,1,913.0897,122.0,19.0,EAT                                    DON'T EAT,911.9489,901.8741,819.4802
185,0,False,left,approach,pos,cake36_crop.jpg,3,19,1.0,184.0,1,914.5245,122.0,19.0,EAT                                    DON'T EAT,913.9675,901.8741,819.4802
186,0,True,left,avoid,pos,meat21_crop.jpg,3,19,1.0,185.0,2,916.8528,122.0,19.0,EAT                                    DON'T EAT,915.98584,901.8741,819.4802
187,0,False,left,approach,pos,cake31_crop.jpg,3,19,1.0,186.0,1,918.7634,122.0,19.0,EAT                                    DON'T EAT,918.0041,901.8741,819.4802
188,0,False,left,approach,pos,cake3_crop.jpg,3,19,1.0,187.0,1,920.72845,122.0,19.0,EAT                                    DON'T EAT,920.0225,901.8741,819.4802
189,0,False,left,approach,pos,cake14_crop.jpg,3,19,1.0,188.0,1,922.66394,122.0,19.0,EAT                                    DON'T EAT,922.0406,901.8741,819.4802
190,0,True,left,avoid,neg,fungus34_crop.jpg,3,19,1.0,189.0,2,924.8409,122.0,19.0,EAT                                    DON'T EAT,924.05884,901.8741,819.4802
191,3,False,right,approach,pos,cake33_crop.jpg,3,20,1.0,190.0,1,945.04504,122.0,20.0,EAT                                    DON'T EAT,943.77545,939.75543,819.4802
192,3,True,right,avoid,neg,fungus31_crop.jpg,3,20,1.0,191.0,2,946.6509,122.0,20.0,EAT                                    DON'T EAT,945.79376,939.75543,819.4802
193,3,True,right,avoid,pos,meat13_crop.jpg,3,20,1.0,192.0,2,948.87976,122.0,20.0,EAT                                    DON'T EAT,947.8122,939.75543,819.4802
194,3,False,right,approach,pos,cake3_crop.jpg,3,20,1.0,193.0,1,950.6722,122.0,20.0,EAT                                    DON'T EAT,949.8304,939.75543,819.4802
195,3,False,right,approach,pos,cake40_crop.jpg,3,20,1.0,194.0,1,952.60004,122.0,20.0,EAT                                    DON'T EAT,951.8488,939.75543,819.4802
196,3,False,right,approach,pos,cake27_crop.jpg,3,20,1.0,195.0,1,954.52405,122.0,20.0,EAT                                    DON'T EAT,953.8674,939.75543,819.4802
197,3,False,right,approach,pos,cake7_crop.jpg,3,20,1.0,196.0,1,956.57153,122.0,20.0,EAT                                    DON'T EAT,955.8852,939.75543,819.4802
198,3,False,right,approach,pos,cake16_crop.jpg,3,20,1.0,197.0,1,958.5199,122.0,20.0,EAT                                    DON'T EAT,957.9033,939.75543,819.4802
199,3,False,right,approach,pos,cake32_crop.jpg,3,20,1.0,198.0,1,961.0117,122.0,20.0,EAT                                    DON'T EAT,959.9222,939.75543,819.4802
200,3,False,right,approach,pos,cake36_crop.jpg,3,20,1.0,199.0,1,963.2362,122.0,20.0,EAT                                    DON'T EAT,961.9403,939.75543,819.4802
201,0,False,right,avoid,neg,fungus6_crop.jpg,3,21,1.0,200.0,2,982.17,122.0,21.0,EAT                                    DON'T EAT,981.2732,977.25305,819.4802
202,0,False,right,avoid,neg,fungus30_crop.jpg,3,21,1.0,201.0,2,983.9887,122.0,21.0,EAT                                    DON'T EAT,983.29156,977.25305,819.4802
203,0,False,right,avoid,neg,fungus11_crop.jpg,3,21,1.0,202.0,2,986.0487,122.0,21.0,EAT                                    DON'T EAT,985.31006,977.25305,819.4802
204,0,False,right,avoid,neg,fungus39_crop.jpg,3,21,1.0,203.0,2,987.97253,122.0,21.0,EAT                                    DON'T EAT,987.3285,977.25305,819.4802
205,0,True,right,approach,pos,cake35_crop.jpg,3,21,1.0,204.0,1,990.14014,122.0,21.0,EAT                                    DON'T EAT,989.34656,977.25305,819.4802
206,0,False,right,avoid,neg,fungus4_crop.jpg,3,21,1.0,205.0,2,992.18005,122.0,21.0,EAT                                    DON'T EAT,991.3649,977.25305,819.4802
207,0,False,right,avoid,neg,fungus17_crop.jpg,3,21,1.0,206.0,2,994.08136,122.0,21.0,EAT                                    DON'T EAT,993.3833,977.25305,819.4802
208,0,True,right,approach,neg,insect22_crop.jpg,3,21,1.0,207.0,1,996.2037,122.0,21.0,EAT                                    DON'T EAT,995.4016,977.25305,819.4802
209,0,False,right,avoid,neg,fungus34_crop.jpg,3,21,1.0,208.0,2,998.15857,122.0,21.0,EAT                                    DON'T EAT,997.42,977.25305,819.4802
210,0,False,right,avoid,neg,fungus13_crop.jpg,3,21,1.0,209.0,2,1000.13855,122.0,21.0,EAT                                    DON'T EAT,999.4382,977.25305,819.4802
211,1,False,left,approach,pos,cake11_crop.jpg,3,22,1.0,210.0,1,1016.3781,122.0,22.0,EAT                                    DON'T EAT,1015.5185,1011.4984,819.4802
212,1,True,left,avoid,neg,fungus37_crop.jpg,3,22,1.0,211.0,2,1018.6932,122.0,22.0,EAT                                    DON'T EAT,1017.53687,1011.4984,819.4802
213,1,False,left,approach,pos,cake21_crop.jpg,3,22,1.0,212.0,1,1020.42175,122.0,22.0,EAT                                    DON'T EAT,1019.555,1011.4984,819.4802
214,1,False,left,approach,pos,cake24_crop.jpg,3,22,1.0,213.0,1,1022.4296,122.0,22.0,EAT                                    DON'T EAT,1021.5733,1011.4984,819.4802
215,1,False,left,approach,pos,cake39_crop.jpg,3,22,1.0,214.0,1,1024.3832,122.0,22.0,EAT                                    DON'T EAT,1023.5918,1011.4984,819.4802
216,1,False,left,approach,pos,cake35_crop.jpg,3,22,1.0,215.0,1,1026.3805,122.0,22.0,EAT                                    DON'T EAT,1025.6101,1011.4984,819.4802
217,1,False,left,approach,pos,cake33_crop.jpg,3,22,1.0,216.0,1,1028.3564,122.0,22.0,EAT                                    DON'T EAT,1027.6285,1011.4984,819.4802
218,1,True,left,avoid,pos,meat34_crop.jpg,3,22,1.0,217.0,2,1030.5359,122.0,22.0,EAT                                    DON'T EAT,1029.6469,1011.4984,819.4802
219,1,False,left,approach,pos,cake34_crop.jpg,3,22,1.0,218.0,1,1032.9933,122.0,22.0,EAT                                    DON'T EAT,1031.665,1011.4984,819.4802
220,1,False,left,approach,pos,cake30_crop.jpg,3,22,1.0,219.0,1,1034.9385,122.0,22.0,EAT                                    DON'T EAT,1033.6836,1011.4984,819.4802
221,0,False,left,avoid,pos,meat17_crop.jpg,3,23,1.0,220.0,2,1050.8662,122.0,23.0,EAT                                    DON'T EAT,1049.747,1045.7268,819.4802
222,0,False,left,avoid,pos,meat6_crop.jpg,3,23,1.0,221.0,2,1052.5564,122.0,23.0,EAT                                    DON'T EAT,1051.765,1045.7268,819.4802
223,0,False,left,avoid,pos,meat13_crop.jpg,3,23,1.0,222.0,2,1054.5527,122.0,23.0,EAT                                    DON'T EAT,1053.7834,1045.7268,819.4802
224,0,False,left,avoid,pos,meat19_crop.jpg,3,23,1.0,223.0,2,1056.5878,122.0,23.0,EAT                                    DON'T EAT,1055.8018,1045.7268,819.4802
225,0,False,left,avoid,pos,meat31_crop.jpg,3,23,1.0,224.0,2,1058.5054,122.0,23.0,EAT                                    DON'T EAT,1057.8202,1045.7268,819.4802
226,0,False,left,avoid,pos,meat15_crop.jpg,3,23,1.0,225.0,2,1060.6411,122.0,23.0,EAT                                    DON'T EAT,1059.8386,1045.7268,819.4802
227,0,True,left,approach,neg,insect27_crop.jpg,3,23,1.0,226.0,1,1062.8477,122.0,23.0,EAT                                    DON'T EAT,1061.8569,1045.7268,819.4802
228,0,False,left,avoid,pos,meat27_crop.jpg,3,23,1.0,227.0,2,1064.6877,122.0,23.0,EAT                                    DON'T EAT,1063.8751,1045.7268,819.4802
229,0,True,left,approach,pos,cake12_crop.jpg,3,23,1.0,228.0,1,1066.7566,122.0,23.0,EAT                                    DON'T EAT,1065.8936,1045.7268,819.4802
230,0,False,left,avoid,pos,meat29_crop.jpg,3,23,1.0,229.0,2,1068.7549,122.0,23.0,EAT                                    DON'T EAT,1067.9119,1045.7268,819.4802
231,1,False,left,avoid,neg,fungus19_crop.jpg,3,24,1.0,230.0,2,1087.3091,122.0,24.0,EAT                                    DON'T EAT,1086.444,1082.4238,819.4802
232,1,False,left,avoid,neg,fungus20_crop.jpg,3,24,1.0,231.0,2,1089.2029,122.0,24.0,EAT                                    DON'T EAT,1088.4618,1082.4238,819.4802
233,1,False,left,avoid,neg,fungus23_crop.jpg,3,24,1.0,232.0,2,1091.1354,122.0,24.0,EAT                                    DON'T EAT,1090.4803,1082.4238,819.4802
234,1,False,left,avoid,neg,fungus4_crop.jpg,3,24,1.0,233.0,2,1093.0244,122.0,24.0,EAT                                    DON'T EAT,1092.4987,1082.4238,819.4802
235,1,True,left,approach,neg,insect40_crop.jpg,3,24,1.0,234.0,2,1095.0233,122.0,24.0,EAT                                    DON'T EAT,1094.5175,1082.4238,819.4802
236,1,False,left,avoid,neg,fungus40_crop.jpg,3,24,1.0,235.0,2,1097.8246,122.0,24.0,EAT                                    DON'T EAT,1096.5356,1082.4238,819.4802
237,1,False,left,avoid,neg,fungus31_crop.jpg,3,24,1.0,236.0,2,1099.5956,122.0,24.0,EAT                                    DON'T EAT,1098.554,1082.4238,819.4802
238,1,False,left,avoid,neg,fungus26_crop.jpg,3,24,1.0,237.0,2,1101.4285,122.0,24.0,EAT                                    DON'T EAT,1100.5724,1082.4238,819.4802
239,1,True,left,approach,pos,cake4_crop.jpg,3,24,1.0,238.0,1,1103.5444,122.0,24.0,EAT                                    DON'T EAT,1102.5907,1082.4238,819.4802
240,1,False,left,avoid,neg,fungus5_crop.jpg,3,24,1.0,239.0,2,1105.7877,122.0,24.0,EAT                                    DON'T EAT,1104.6088,1082.4238,819.4802
241,3,False,left,avoid,pos,meat16_crop.jpg,4,25,1.0,240.0,2,1211.901,122.0,25.0,EAT                                    DON'T EAT,1210.9303,1206.9108,1196.4823
242,3,False,left,avoid,pos,meat4_crop.jpg,4,25,1.0,241.0,2,1213.7413,122.0,25.0,EAT                                    DON'T EAT,1212.9487,1206.9108,1196.4823
243,3,False,left,avoid,pos,meat33_crop.jpg,4,25,1.0,242.0,2,1215.8219,122.0,25.0,EAT                                    DON'T EAT,1214.9675,1206.9108,1196.4823
244,3,False,left,avoid,pos,meat14_crop.jpg,4,25,1.0,243.0,2,1217.8302,122.0,25.0,EAT                                    DON'T EAT,1216.9856,1206.9108,1196.4823
245,3,False,left,avoid,pos,meat30_crop.jpg,4,25,1.0,244.0,2,1219.7007,122.0,25.0,EAT                                    DON'T EAT,1219.0039,1206.9108,1196.4823
246,3,False,left,avoid,pos,meat11_crop.jpg,4,25,1.0,245.0,2,1221.7693,122.0,25.0,EAT                                    DON'T EAT,1221.0223,1206.9108,1196.4823
247,3,True,left,approach,pos,cake15_crop.jpg,4,25,1.0,246.0,1,1223.9486,122.0,25.0,EAT                                    DON'T EAT,1223.0406,1206.9108,1196.4823
248,3,False,left,avoid,pos,meat1_crop.jpg,4,25,1.0,247.0,2,1226.6658,122.0,25.0,EAT                                    DON'T EAT,1225.0588,1206.9108,1196.4823
249,3,False,left,avoid,pos,meat20_crop.jpg,4,25,1.0,248.0,2,1228.0239,122.0,25.0,EAT                                    DON'T EAT,1227.077,1206.9108,1196.4823
250,3,True,left,approach,neg,insect39_crop.jpg,4,25,1.0,249.0,1,1230.0027,122.0,25.0,EAT                                    DON'T EAT,1229.0957,1206.9108,1196.4823
251,1,False,right,avoid,neg,fungus32_crop.jpg,4,26,1.0,250.0,2,1247.1711,122.0,26.0,EAT                                    DON'T EAT,1246.2266,1242.2067,1196.4823
252,1,False,right,avoid,neg,fungus15_crop.jpg,4,26,1.0,251.0,2,1249.1964,122.0,26.0,EAT                                    DON'T EAT,1248.2449,1242.2067,1196.4823
253,1,False,right,avoid,neg,fungus8_crop.jpg,4,26,1.0,252.0,2,1251.2444,122.0,26.0,EAT                                    DON'T EAT,1250.2633,1242.2067,1196.4823
254,1,False,right,avoid,neg,fungus38_crop.jpg,4,26,1.0,253.0,2,1253.1055,122.0,26.0,EAT                                    DON'T EAT,1252.2816,1242.2067,1196.4823
255,1,False,right,avoid,neg,fungus35_crop.jpg,4,26,1.0,254.0,2,1255.0157,122.0,26.0,EAT                                    DON'T EAT,1254.3,1242.2067,1196.4823
256,1,True,right,approach,pos,cake8_crop.jpg,4,26,1.0,255.0,1,1257.2397,122.0,26.0,EAT                                    DON'T EAT,1256.3177,1242.2067,1196.4823
257,1,False,right,avoid,neg,fungus21_crop.jpg,4,26,1.0,256.0,2,1259.0331,122.0,26.0,EAT                                    DON'T EAT,1258.3365,1242.2067,1196.4823
258,1,True,right,approach,neg,insect29_crop.jpg,4,26,1.0,257.0,1,1261.2687,122.0,26.0,EAT                                    DON'T EAT,1260.3545,1242.2067,1196.4823
259,1,False,right,avoid,neg,fungus27_crop.jpg,4,26,1.0,258.0,2,1263.02,122.0,26.0,EAT                                    DON'T EAT,1262.3734,1242.2067,1196.4823
260,1,False,right,avoid,neg,fungus23_crop.jpg,4,26,1.0,259.0,2,1265.0692,122.0,26.0,EAT                                    DON'T EAT,1264.3916,1242.2067,1196.4823
261,2,True,right,avoid,neg,fungus22_crop.jpg,4,27,1.0,260.0,2,1285.156,122.0,27.0,EAT                                    DON'T EAT,1284.3083,1280.2882,1196.4823
262,2,False,right,approach,neg,insect7_crop.jpg,4,27,1.0,261.0,1,1287.075,122.0,27.0,EAT                                    DON'T EAT,1286.326,1280.2882,1196.4823
263,2,False,right,approach,neg,insect8_crop.jpg,4,27,1.0,262.0,1,1289.022,122.0,27.0,EAT                                    DON'T EAT,1288.345,1280.2882,1196.4823
264,2,False,right,approach,neg,insect27_crop.jpg,4,27,1.0,263.0,1,1291.2598,122.0,27.0,EAT                                    DON'T EAT,1290.3633,1280.2882,1196.4823
265,2,False,right,approach,neg,insect12_crop.jpg,4,27,1.0,264.0,1,1293.0066,122.0,27.0,EAT                                    DON'T EAT,1292.3815,1280.2882,1196.4823
266,2,False,right,approach,neg,insect32_crop.jpg,4,27,1.0,265.0,1,1295.561,122.0,27.0,EAT                                    DON'T EAT,1294.3997,1280.2882,1196.4823
267,2,True,right,avoid,pos,meat2_crop.jpg,4,27,1.0,266.0,2,1297.212,122.0,27.0,EAT                                    DON'T EAT,1296.4182,1280.2882,1196.4823
268,2,False,right,approach,neg,insect11_crop.jpg,4,27,1.0,267.0,1,1299.1633,122.0,27.0,EAT                                    DON'T EAT,1298.4366,1280.2882,1196.4823
269,2,False,right,approach,neg,insect28_crop.jpg,4,27,1.0,268.0,1,1301.4492,122.0,27.0,EAT                                    DON'T EAT,1300.4546,1280.2882,1196.4823
270,2,False,right,approach,neg,insect21_crop.jpg,4,27,1.0,269.0,1,1303.2235,122.0,27.0,EAT                                    DON'T EAT,1302.4734,1280.2882,1196.4823
271,0,False,right,approach,pos,cake18_crop.jpg,4,28,1.0,270.0,1,1322.0646,122.0,28.0,EAT                                    DON'T EAT,1320.8213,1316.8019,1196.4823
272,0,False,right,approach,pos,cake39_crop.jpg,4,28,1.0,271.0,1,1323.5477,122.0,28.0,EAT                                    DON'T EAT,1322.8401,1316.8019,1196.4823
273,0,False,right,approach,pos,cake20_crop.jpg,4,28,1.0,272.0,1,1325.5337,122.0,28.0,EAT                                    DON'T EAT,1324.8586,1316.8019,1196.4823
274,0,False,right,approach,pos,cake6_crop.jpg,4,28,1.0,273.0,1,1327.4899,122.0,28.0,EAT                                    DON'T EAT,1326.8768,1316.8019,1196.4823
275,0,False,right,approach,pos,cake37_crop.jpg,4,28,1.0,274.0,1,1329.4231,122.0,28.0,EAT                                    DON'T EAT,1328.8954,1316.8019,1196.4823
276,0,False,right,approach,pos,cake14_crop.jpg,4,28,1.0,275.0,1,1331.4619,122.0,28.0,EAT                                    DON'T EAT,1330.9135,1316.8019,1196.4823
277,0,False,right,approach,pos,cake19_crop.jpg,4,28,1.0,276.0,1,1333.5319,122.0,28.0,EAT                                    DON'T EAT,1332.9319,1316.8019,1196.4823
278,0,True,right,avoid,pos,meat30_crop.jpg,4,28,1.0,277.0,2,1335.8792,122.0,28.0,EAT                                    DON'T EAT,1334.9502,1316.8019,1196.4823
279,0,False,right,approach,pos,cake31_crop.jpg,4,28,1.0,278.0,1,1337.9615,122.0,28.0,EAT                                    DON'T EAT,1336.9688,1316.8019,1196.4823
280,0,True,right,avoid,neg,fungus24_crop.jpg,4,28,1.0,279.0,2,1339.6931,122.0,28.0,EAT                                    DON'T EAT,1338.9869,1316.8019,1196.4823
281,1,False,right,avoid,pos,meat17_crop.jpg,4,29,1.0,280.0,2,1356.8715,122.0,29.0,EAT                                    DON'T EAT,1355.9839,1351.9641,1196.4823
282,1,False,right,avoid,pos,meat4_crop.jpg,4,29,1.0,281.0,2,1358.7045,122.0,29.0,EAT                                    DON'T EAT,1358.0022,1351.9641,1196.4823
283,1,False,right,avoid,pos,meat26_crop.jpg,4,29,1.0,282.0,2,1360.5472,122.0,29.0,EAT                                    DON'T EAT,1360.0205,1351.9641,1196.4823
284,1,True,right,approach,pos,cake24_crop.jpg,4,29,1.0,283.0,1,1363.0042,122.0,29.0,EAT                                    DON'T EAT,1362.039,1351.9641,1196.4823
285,1,False,right,avoid,pos,meat21_crop.jpg,4,29,1.0,284.0,2,1364.8246,122.0,29.0,EAT                                    DON'T EAT,1364.0571,1351.9641,1196.4823
286,1,False,right,avoid,pos,meat40_crop.jpg,4,29,1.0,285.0,2,1366.892,122.0,29.0,EAT                                    DON'T EAT,1366.0762,1351.9641,1196.4823
287,1,False,right,avoid,pos,meat35_crop.jpg,4,29,1.0,286.0,2,1369.246,122.0,29.0,EAT                                    DON'T EAT,1368.0944,1351.9641,1196.4823
288,1,True,right,approach,neg,insect18_crop.jpg,4,29,1.0,287.0,1,1370.9492,122.0,29.0,EAT                                    DON'T EAT,1370.1128,1351.9641,1196.4823
289,1,False,right,avoid,pos,meat37_crop.jpg,4,29,1.0,288.0,2,1373.0938,122.0,29.0,EAT                                    DON'T EAT,1372.1311,1351.9641,1196.4823
290,1,False,right,avoid,pos,meat28_crop.jpg,4,29,1.0,289.0,2,1374.8901,122.0,29.0,EAT                                    DON'T EAT,1374.1494,1351.9641,1196.4823
291,3,False,left,avoid,neg,fungus1_crop.jpg,4,30,1.0,290.0,2,1391.2242,122.0,30.0,EAT                                    DON'T EAT,1390.463,1386.4431,1196.4823
292,3,False,left,avoid,neg,fungus32_crop.jpg,4,30,1.0,291.0,2,1393.1653,122.0,30.0,EAT                                    DON'T EAT,1392.4812,1386.4431,1196.4823
293,3,False,left,avoid,neg,fungus14_crop.jpg,4,30,1.0,292.0,2,1395.2505,122.0,30.0,EAT                                    DON'T EAT,1394.4996,1386.4431,1196.4823
294,3,False,left,avoid,neg,fungus38_crop.jpg,4,30,1.0,293.0,2,1397.1715,122.0,30.0,EAT                                    DON'T EAT,1396.518,1386.4431,1196.4823
295,3,False,left,avoid,neg,fungus29_crop.jpg,4,30,1.0,294.0,2,1399.2649,122.0,30.0,EAT                                    DON'T EAT,1398.5364,1386.4431,1196.4823
296,3,False,left,avoid,neg,fungus7_crop.jpg,4,30,1.0,295.0,2,1401.3136,122.0,30.0,EAT                                    DON'T EAT,1400.5547,1386.4431,1196.4823
297,3,True,left,approach,pos,cake7_crop.jpg,4,30,1.0,296.0,1,1403.5138,122.0,30.0,EAT                                    DON'T EAT,1402.573,1386.4431,1196.4823
298,3,True,left,approach,neg,insect8_crop.jpg,4,30,1.0,297.0,1,1405.4445,122.0,30.0,EAT                                    DON'T EAT,1404.5914,1386.4431,1196.4823
299,3,False,left,avoid,neg,fungus8_crop.jpg,4,30,1.0,298.0,2,1407.5198,122.0,30.0,EAT                                    DON'T EAT,1406.6096,1386.4431,1196.4823
300,3,False,left,avoid,neg,fungus18_crop.jpg,4,30,1.0,299.0,2,1409.3777,122.0,30.0,EAT                                    DON'T EAT,1408.628,1386.4431,1196.4823
301,0,False,left,approach,neg,insect24_crop.jpg,4,31,1.0,300.0,1,1429.57,122.0,31.0,EAT                                    DON'T EAT,1428.6113,1424.5912,1196.4823
302,0,False,left,approach,neg,insect12_crop.jpg,4,31,1.0,301.0,1,1431.2638,122.0,31.0,EAT                                    DON'T EAT,1430.6296,1424.5912,1196.4823
303,0,True,left,avoid,neg,fungus9_crop.jpg,4,31,1.0,302.0,2,1433.3864,122.0,31.0,EAT                                    DON'T EAT,1432.648,1424.5912,1196.4823
304,0,False,left,approach,neg,insect32_crop.jpg,4,31,1.0,303.0,1,1435.4486,122.0,31.0,EAT                                    DON'T EAT,1434.6665,1424.5912,1196.4823
305,0,False,left,approach,neg,insect6_crop.jpg,4,31,1.0,304.0,1,1437.3506,122.0,31.0,EAT                                    DON'T EAT,1436.6848,1424.5912,1196.4823
306,0,True,left,avoid,pos,meat9_crop.jpg,4,31,1.0,305.0,2,1439.4825,122.0,31.0,EAT                                    DON'T EAT,1438.703,1424.5912,1196.4823
307,0,False,left,approach,neg,insect29_crop.jpg,4,31,1.0,306.0,1,1441.522,122.0,31.0,EAT                                    DON'T EAT,1440.7213,1424.5912,1196.4823
308,0,False,left,approach,neg,insect3_crop.jpg,4,31,1.0,307.0,1,1443.4695,122.0,31.0,EAT                                    DON'T EAT,1442.7397,1424.5912,1196.4823
309,0,False,left,approach,neg,insect25_crop.jpg,4,31,1.0,308.0,1,1445.4537,122.0,31.0,EAT                                    DON'T EAT,1444.758,1424.5912,1196.4823
310,0,False,left,approach,neg,insect20_crop.jpg,4,31,1.0,309.0,1,1447.3795,122.0,31.0,EAT                                    DON'T EAT,1446.7764,1424.5912,1196.4823
311,3,False,right,approach,neg,insect37_crop.jpg,4,32,1.0,310.0,1,1463.7228,122.0,32.0,EAT                                    DON'T EAT,1462.9396,1458.936,1196.4823
312,3,True,right,avoid,pos,meat27_crop.jpg,4,32,1.0,311.0,2,1465.7477,122.0,32.0,EAT                                    DON'T EAT,1464.9583,1458.936,1196.4823
313,3,False,right,approach,neg,insect24_crop.jpg,4,32,1.0,312.0,1,1467.7041,122.0,32.0,EAT                                    DON'T EAT,1466.9766,1458.936,1196.4823
314,3,True,right,avoid,neg,fungus1_crop.jpg,4,32,1.0,313.0,2,1469.6292,122.0,32.0,EAT                                    DON'T EAT,1468.9949,1458.936,1196.4823
315,3,False,right,approach,neg,insect20_crop.jpg,4,32,1.0,314.0,1,1471.9117,122.0,32.0,EAT                                    DON'T EAT,1471.0131,1458.936,1196.4823
316,3,False,right,approach,neg,insect39_crop.jpg,4,32,1.0,315.0,1,1473.8448,122.0,32.0,EAT                                    DON'T EAT,1473.0315,1458.936,1196.4823
317,3,False,right,approach,neg,insect3_crop.jpg,4,32,1.0,316.0,1,1475.6495,122.0,32.0,EAT                                    DON'T EAT,1475.0497,1458.936,1196.4823
318,3,False,right,approach,neg,insect6_crop.jpg,4,32,1.0,317.0,1,1477.6692,122.0,32.0,EAT                                    DON'T EAT,1477.0682,1458.936,1196.4823
319,3,False,right,approach,neg,insect31_crop.jpg,4,32,1.0,318.0,1,1479.7736,122.0,32.0,EAT                                    DON'T EAT,1479.0867,1458.936,1196.4823
320,3,False,right,approach,neg,insect35_crop.jpg,4,32,1.0,319.0,1,1481.9717,122.0,32.0,EAT                                    DON'T EAT,1481.1049,1458.936,1196.4823
