subject,trial_number,n_block,catch,hand,mot,val,stim_name,run_number,num_block,ran,order,response,time_of_response,subject_number,left_side_resp_label,trial_onset,blk_instr_onset,baseline_onset,response_hand,response_cleaned,response_lat,response_lat_cleaned,response_meaning,response_meaning_cleaned,condition_mot,condition_val,condition,correct,correct_cleaned,rt
sub-043,1,0,FALSE,left,avoid,neg,fungus30_crop.jpg,1,1,TRUE,0,1,1679.0181,43,DON'T EAT                                    EAT,1677.8119,1673.7921,1662.3091,left,1,left,left,not_eat,not_eat,avoid,neg,avoid-neg,1,1,1206.2000000001863
sub-043,2,0,TRUE,left,approach,neg,insect11_crop.jpg,1,1,TRUE,1,2,1680.7205,43,DON'T EAT                                    EAT,1679.8303,1673.7921,1662.3091,left,2,right,right,eat,eat,avoid,neg,avoid-neg,1,1,890.1999999999534
sub-043,3,0,FALSE,left,avoid,neg,fungus6_crop.jpg,1,1,TRUE,2,1,1682.9701,43,DON'T EAT                                    EAT,1681.8483,1673.7921,1662.3091,left,1,left,left,not_eat,not_eat,avoid,neg,avoid-neg,1,1,1121.8000000000466
sub-043,4,0,FALSE,left,avoid,neg,fungus21_crop.jpg,1,1,TRUE,3,1,1684.8336,43,DON'T EAT                                    EAT,1683.87,1673.7921,1662.3091,left,1,left,left,not_eat,not_eat,avoid,neg,avoid-neg,1,1,963.5999999998603
sub-043,5,0,TRUE,left,approach,pos,cake14_crop.jpg,1,1,TRUE,4,2,1686.7128,43,DON'T EAT                                    EAT,1685.8878,1673.7921,1662.3091,left,2,right,right,eat,eat,avoid,neg,avoid-neg,1,1,825
sub-043,6,0,FALSE,left,avoid,neg,fungus3_crop.jpg,1,1,TRUE,5,1,1689.4094,43,DON'T EAT                                    EAT,1687.9038,1673.7921,1662.3091,left,1,left,left,not_eat,not_eat,avoid,neg,avoid-neg,1,1,1505.5999999998603
sub-043,7,0,FALSE,left,avoid,neg,fungus16_crop.jpg,1,1,TRUE,6,1,1691.8606,43,DON'T EAT                                    EAT,1689.922,1673.7921,1662.3091,left,1,left,left,not_eat,not_eat,avoid,neg,avoid-neg,1,1,1938.6000000000931
sub-043,8,0,FALSE,left,avoid,neg,fungus32_crop.jpg,1,1,TRUE,7,1,1693.0214,43,DON'T EAT                                    EAT,1691.94,1673.7921,1662.3091,left,1,left,left,not_eat,not_eat,avoid,neg,avoid-neg,1,1,1081.4000000001397
sub-043,9,0,FALSE,left,avoid,neg,fungus34_crop.jpg,1,1,TRUE,8,1,1695.0807,43,DON'T EAT                                    EAT,1693.9583,1673.7921,1662.3091,left,1,left,left,not_eat,not_eat,avoid,neg,avoid-neg,1,1,1122.3999999999069
sub-043,10,0,FALSE,left,avoid,neg,fungus23_crop.jpg,1,1,TRUE,9,1,1696.863,43,DON'T EAT                                    EAT,1695.9768,1673.7921,1662.3091,left,1,left,left,not_eat,not_eat,avoid,neg,avoid-neg,1,1,886.2000000001863
sub-043,11,0,TRUE,right,approach,neg,insect11_crop.jpg,1,2,TRUE,10,2,1715.4128,43,DON'T EAT                                    EAT,1714.5587,1710.5554,1662.3091,left,2,right,right,eat,eat,avoid,pos,avoid-pos,1,1,854.1000000000931
sub-043,12,0,FALSE,right,avoid,pos,meat36_crop.jpg,1,2,TRUE,11,1,1717.4419,43,DON'T EAT                                    EAT,1716.577,1710.5554,1662.3091,left,1,left,left,not_eat,not_eat,avoid,pos,avoid-pos,1,1,864.9000000001397
sub-043,13,0,FALSE,right,avoid,pos,meat16_crop.jpg,1,2,TRUE,12,1,1719.6138,43,DON'T EAT                                    EAT,1718.5955,1710.5554,1662.3091,left,1,left,left,not_eat,not_eat,avoid,pos,avoid-pos,1,1,1018.3000000000466
sub-043,14,0,TRUE,right,approach,pos,cake28_crop.jpg,1,2,TRUE,13,2,1721.4238,43,DON'T EAT                                    EAT,1720.6139,1710.5554,1662.3091,left,2,right,right,eat,eat,avoid,pos,avoid-pos,1,1,809.8999999999069
sub-043,15,0,FALSE,right,avoid,pos,meat39_crop.jpg,1,2,TRUE,14,2,1724.0466,43,DON'T EAT                                    EAT,1722.6322,1710.5554,1662.3091,left,2,right,right,eat,eat,avoid,pos,avoid-pos,0,0,1414.3999999999069
sub-043,16,0,FALSE,right,avoid,pos,meat29_crop.jpg,1,2,TRUE,15,1,1725.4839,43,DON'T EAT                                    EAT,1724.6505,1710.5554,1662.3091,left,1,left,left,not_eat,not_eat,avoid,pos,avoid-pos,1,1,833.3999999999069
sub-043,17,0,FALSE,right,avoid,pos,meat31_crop.jpg,1,2,TRUE,16,1,1727.5449,43,DON'T EAT                                    EAT,1726.6688,1710.5554,1662.3091,left,1,left,left,not_eat,not_eat,avoid,pos,avoid-pos,1,1,876.100000000326
sub-043,18,0,FALSE,right,avoid,pos,meat19_crop.jpg,1,2,TRUE,17,1,1729.5413,43,DON'T EAT                                    EAT,1728.6873,1710.5554,1662.3091,left,1,left,left,not_eat,not_eat,avoid,pos,avoid-pos,1,1,854
sub-043,19,0,FALSE,right,avoid,pos,meat8_crop.jpg,1,2,TRUE,18,1,1731.4731,43,DON'T EAT                                    EAT,1730.7057,1710.5554,1662.3091,left,1,left,left,not_eat,not_eat,avoid,pos,avoid-pos,1,1,767.3999999999069
sub-043,20,0,FALSE,right,avoid,pos,meat28_crop.jpg,1,2,TRUE,19,1,1733.6106,43,DON'T EAT                                    EAT,1732.7239,1710.5554,1662.3091,left,1,left,left,not_eat,not_eat,avoid,pos,avoid-pos,1,1,886.7000000001863
sub-043,21,2,FALSE,left,approach,pos,cake20_crop.jpg,1,3,TRUE,20,2,1751.0479,43,DON'T EAT                                    EAT,1749.7881,1745.7847,1662.3091,left,2,right,right,eat,eat,approach,pos,approach-pos,1,1,1259.8000000000466
sub-043,22,2,FALSE,left,approach,pos,cake26_crop.jpg,1,3,TRUE,21,2,1752.7147,43,DON'T EAT                                    EAT,1751.8068,1745.7847,1662.3091,left,2,right,right,eat,eat,approach,pos,approach-pos,1,1,907.8999999999069
sub-043,23,2,TRUE,left,avoid,pos,meat4_crop.jpg,1,3,TRUE,22,1,1754.9755,43,DON'T EAT                                    EAT,1753.8248,1745.7847,1662.3091,left,1,left,left,not_eat,not_eat,approach,pos,approach-pos,1,1,1150.6999999999534
sub-043,24,2,FALSE,left,approach,pos,cake27_crop.jpg,1,3,TRUE,23,2,1756.7096,43,DON'T EAT                                    EAT,1755.8431,1745.7847,1662.3091,left,2,right,right,eat,eat,approach,pos,approach-pos,1,1,866.4999999997672
sub-043,25,2,TRUE,left,avoid,neg,fungus31_crop.jpg,1,3,TRUE,24,1,1758.7145,43,DON'T EAT                                    EAT,1757.8615,1745.7847,1662.3091,left,1,left,left,not_eat,not_eat,approach,pos,approach-pos,1,1,853
sub-043,26,2,FALSE,left,approach,pos,cake2_crop.jpg,1,3,TRUE,25,2,1760.6587,43,DON'T EAT                                    EAT,1759.8798,1745.7847,1662.3091,left,2,right,right,eat,eat,approach,pos,approach-pos,1,1,778.8999999999069
sub-043,27,2,FALSE,left,approach,pos,cake3_crop.jpg,1,3,TRUE,26,2,1762.7203,43,DON'T EAT                                    EAT,1761.8982,1745.7847,1662.3091,left,2,right,right,eat,eat,approach,pos,approach-pos,1,1,822.0999999998603
sub-043,28,2,FALSE,left,approach,pos,cake37_crop.jpg,1,3,TRUE,27,2,1764.8041,43,DON'T EAT                                    EAT,1763.9165,1745.7847,1662.3091,left,2,right,right,eat,eat,approach,pos,approach-pos,1,1,887.6000000000931
sub-043,29,2,FALSE,left,approach,pos,cake4_crop.jpg,1,3,TRUE,28,2,1766.8677,43,DON'T EAT                                    EAT,1765.9348,1745.7847,1662.3091,left,2,right,right,eat,eat,approach,pos,approach-pos,1,1,932.8999999999069
sub-043,30,2,FALSE,left,approach,pos,cake6_crop.jpg,1,3,TRUE,29,2,1769.4764,43,DON'T EAT                                    EAT,1767.9532,1745.7847,1662.3091,left,2,right,right,eat,eat,approach,pos,approach-pos,1,1,1523.1999999999534
sub-043,31,3,TRUE,left,avoid,neg,fungus2_crop.jpg,1,4,TRUE,30,1,1788.2736,43,DON'T EAT                                    EAT,1787.386,1783.3827000000001,1662.3091,left,1,left,left,not_eat,not_eat,approach,pos,approach-pos,1,1,887.6000000000931
sub-043,32,3,FALSE,left,approach,pos,cake35_crop.jpg,1,4,TRUE,31,2,1790.1383,43,DON'T EAT                                    EAT,1789.4043,1783.3827000000001,1662.3091,left,2,right,right,eat,eat,approach,pos,approach-pos,1,1,734.0000000002328
sub-043,33,3,TRUE,left,avoid,pos,meat13_crop.jpg,1,4,TRUE,32,1,1793.1221,43,DON'T EAT                                    EAT,1791.4226,1783.3827000000001,1662.3091,left,1,left,left,not_eat,not_eat,approach,pos,approach-pos,1,1,1699.5
sub-043,34,3,FALSE,left,approach,pos,cake11_crop.jpg,1,4,TRUE,33,2,1794.2181,43,DON'T EAT                                    EAT,1793.441,1783.3827000000001,1662.3091,left,2,right,right,eat,eat,approach,pos,approach-pos,1,1,777.1000000000931
sub-043,35,3,FALSE,left,approach,pos,cake40_crop.jpg,1,4,TRUE,34,2,1796.1057,43,DON'T EAT                                    EAT,1795.4592,1783.3827000000001,1662.3091,left,2,right,right,eat,eat,approach,pos,approach-pos,1,1,646.5000000002328
sub-043,36,3,FALSE,left,approach,pos,cake5_crop.jpg,1,4,TRUE,35,2,1798.0887,43,DON'T EAT                                    EAT,1797.4777,1783.3827000000001,1662.3091,left,2,right,right,eat,eat,approach,pos,approach-pos,1,1,611
sub-043,37,3,FALSE,left,approach,pos,cake25_crop.jpg,1,4,TRUE,36,2,1800.2268,43,DON'T EAT                                    EAT,1799.496,1783.3827000000001,1662.3091,left,2,right,right,eat,eat,approach,pos,approach-pos,1,1,730.7999999998137
sub-043,38,3,FALSE,left,approach,pos,cake8_crop.jpg,1,4,TRUE,37,2,1802.1383,43,DON'T EAT                                    EAT,1801.5144,1783.3827000000001,1662.3091,left,2,right,right,eat,eat,approach,pos,approach-pos,1,1,623.9000000001397
sub-043,39,3,FALSE,left,approach,pos,cake22_crop.jpg,1,4,TRUE,38,2,1804.2084,43,DON'T EAT                                    EAT,1803.5327,1783.3827000000001,1662.3091,left,2,right,right,eat,eat,approach,pos,approach-pos,1,1,675.6999999999534
sub-043,40,3,FALSE,left,approach,pos,cake19_crop.jpg,1,4,TRUE,39,2,1806.4591,43,DON'T EAT                                    EAT,1805.5511,1783.3827000000001,1662.3091,left,2,right,right,eat,eat,approach,pos,approach-pos,1,1,908.0000000002328
sub-043,41,3,FALSE,left,avoid,neg,fungus9_crop.jpg,1,5,TRUE,40,1,1825.354,43,DON'T EAT                                    EAT,1824.2499,1820.23,1662.3091,left,1,left,left,not_eat,not_eat,avoid,neg,avoid-neg,1,1,1104.0999999998603
sub-043,42,3,FALSE,left,avoid,neg,fungus10_crop.jpg,1,5,TRUE,41,1,1826.9465,43,DON'T EAT                                    EAT,1826.2683,1820.23,1662.3091,left,1,left,left,not_eat,not_eat,avoid,neg,avoid-neg,1,1,678.1999999999534
sub-043,43,3,FALSE,left,avoid,neg,fungus28_crop.jpg,1,5,TRUE,42,1,1828.9114,43,DON'T EAT                                    EAT,1828.2866,1820.23,1662.3091,left,1,left,left,not_eat,not_eat,avoid,neg,avoid-neg,1,1,624.8000000000466
sub-043,44,3,TRUE,left,approach,pos,cake30_crop.jpg,1,5,TRUE,43,2,1830.9813,43,DON'T EAT                                    EAT,1830.3049,1820.23,1662.3091,left,2,right,right,eat,eat,avoid,neg,avoid-neg,1,1,676.399999999674
sub-043,45,3,FALSE,left,avoid,neg,fungus8_crop.jpg,1,5,TRUE,44,1,1833.0781,43,DON'T EAT                                    EAT,1832.3232,1820.23,1662.3091,left,1,left,left,not_eat,not_eat,avoid,neg,avoid-neg,1,1,754.8999999999069
sub-043,46,3,FALSE,left,avoid,neg,fungus37_crop.jpg,1,5,TRUE,45,1,1835.1411,43,DON'T EAT                                    EAT,1834.3416,1820.23,1662.3091,left,1,left,left,not_eat,not_eat,avoid,neg,avoid-neg,1,1,799.5000000002328
sub-043,47,3,FALSE,left,avoid,neg,fungus38_crop.jpg,1,5,TRUE,46,1,1837.0916,43,DON'T EAT                                    EAT,1836.3599,1820.23,1662.3091,left,1,left,left,not_eat,not_eat,avoid,neg,avoid-neg,1,1,731.6999999999534
sub-043,48,3,FALSE,left,avoid,neg,fungus39_crop.jpg,1,5,TRUE,47,1,1839.0455,43,DON'T EAT                                    EAT,1838.3784,1820.23,1662.3091,left,1,left,left,not_eat,not_eat,avoid,neg,avoid-neg,1,1,667.0999999998603
sub-043,49,3,FALSE,left,avoid,neg,fungus20_crop.jpg,1,5,TRUE,48,1,1841.61,43,DON'T EAT                                    EAT,1840.3966,1820.23,1662.3091,left,1,left,left,not_eat,not_eat,avoid,neg,avoid-neg,1,1,1213.3999999999069
sub-043,50,3,TRUE,left,approach,neg,insect30_crop.jpg,1,5,TRUE,49,2,1843.1471,43,DON'T EAT                                    EAT,1842.415,1820.23,1662.3091,left,2,right,right,eat,eat,avoid,neg,avoid-neg,1,1,732.0999999998603
sub-043,51,3,TRUE,right,avoid,pos,meat12_crop.jpg,1,6,TRUE,50,1,1863.0262,43,DON'T EAT                                    EAT,1861.998,1857.9779,1662.3091,left,1,left,left,not_eat,not_eat,approach,pos,approach-pos,1,1,1028.1999999999534
sub-043,52,3,FALSE,right,approach,pos,cake3_crop.jpg,1,6,TRUE,51,2,1864.7162,43,DON'T EAT                                    EAT,1864.0162,1857.9779,1662.3091,left,2,right,right,eat,eat,approach,pos,approach-pos,1,1,700.0000000002328
sub-043,53,3,FALSE,right,approach,pos,cake1_crop.jpg,1,6,TRUE,52,2,1866.6663,43,DON'T EAT                                    EAT,1866.0345,1857.9779,1662.3091,left,2,right,right,eat,eat,approach,pos,approach-pos,1,1,631.8000000000466
sub-043,54,3,FALSE,right,approach,pos,cake10_crop.jpg,1,6,TRUE,53,2,1868.6644,43,DON'T EAT                                    EAT,1868.053,1857.9779,1662.3091,left,2,right,right,eat,eat,approach,pos,approach-pos,1,1,611.3999999999069
sub-043,55,3,FALSE,right,approach,pos,cake11_crop.jpg,1,6,TRUE,54,2,1870.6079,43,DON'T EAT                                    EAT,1870.0713,1857.9779,1662.3091,left,2,right,right,eat,eat,approach,pos,approach-pos,1,1,536.5999999998603
sub-043,56,3,FALSE,right,approach,pos,cake24_crop.jpg,1,6,TRUE,55,2,1872.6573,43,DON'T EAT                                    EAT,1872.0896,1857.9779,1662.3091,left,2,right,right,eat,eat,approach,pos,approach-pos,1,1,567.6999999999534
sub-043,57,3,FALSE,right,approach,pos,cake15_crop.jpg,1,6,TRUE,56,2,1874.7112,43,DON'T EAT                                    EAT,1874.1079,1857.9779,1662.3091,left,2,right,right,eat,eat,approach,pos,approach-pos,1,1,603.3000000000466
sub-043,58,3,TRUE,right,avoid,neg,fungus23_crop.jpg,1,6,TRUE,57,1,1876.9473,43,DON'T EAT                                    EAT,1876.1263,1857.9779,1662.3091,left,1,left,left,not_eat,not_eat,approach,pos,approach-pos,1,1,821.0000000002328
sub-043,59,3,FALSE,right,approach,pos,cake14_crop.jpg,1,6,TRUE,58,2,1878.9324,43,DON'T EAT                                    EAT,1878.1448,1857.9779,1662.3091,left,2,right,right,eat,eat,approach,pos,approach-pos,1,1,787.5999999998603
sub-043,60,3,FALSE,right,approach,pos,cake35_crop.jpg,1,6,TRUE,59,2,1880.8304,43,DON'T EAT                                    EAT,1880.163,1857.9779,1662.3091,left,2,right,right,eat,eat,approach,pos,approach-pos,1,1,667.4000000001397
sub-043,61,2,FALSE,left,avoid,neg,fungus27_crop.jpg,1,7,TRUE,60,1,1900.1422,43,DON'T EAT                                    EAT,1899.3123,1895.2922,1662.3091,left,1,left,left,not_eat,not_eat,avoid,neg,avoid-neg,1,1,829.8999999999069
sub-043,62,2,FALSE,left,avoid,neg,fungus25_crop.jpg,1,7,TRUE,61,1,1902.0443,43,DON'T EAT                                    EAT,1901.3306,1895.2922,1662.3091,left,1,left,left,not_eat,not_eat,avoid,neg,avoid-neg,1,1,713.6999999999534
sub-043,63,2,TRUE,left,approach,neg,insect15_crop.jpg,1,7,TRUE,62,2,1904.1595,43,DON'T EAT                                    EAT,1903.3489,1895.2922,1662.3091,left,2,right,right,eat,eat,avoid,neg,avoid-neg,1,1,810.6000000000931
sub-043,64,2,FALSE,left,avoid,neg,fungus1_crop.jpg,1,7,TRUE,63,1,1906.0684,43,DON'T EAT                                    EAT,1905.3673,1895.2922,1662.3091,left,1,left,left,not_eat,not_eat,avoid,neg,avoid-neg,1,1,701.100000000326
sub-043,65,2,FALSE,left,avoid,neg,fungus26_crop.jpg,1,7,TRUE,64,1,1908.0297,43,DON'T EAT                                    EAT,1907.3856,1895.2922,1662.3091,left,1,left,left,not_eat,not_eat,avoid,neg,avoid-neg,1,1,644.0999999998603
sub-043,66,2,TRUE,left,approach,pos,cake34_crop.jpg,1,7,TRUE,65,2,1910.1925,43,DON'T EAT                                    EAT,1909.4042,1895.2922,1662.3091,left,2,right,right,eat,eat,avoid,neg,avoid-neg,1,1,788.3000000000466
sub-043,67,2,FALSE,left,avoid,neg,fungus5_crop.jpg,1,7,TRUE,66,1,1912.2428,43,DON'T EAT                                    EAT,1911.4224,1895.2922,1662.3091,left,1,left,left,not_eat,not_eat,avoid,neg,avoid-neg,1,1,820.4000000001397
sub-043,68,2,FALSE,left,avoid,neg,fungus40_crop.jpg,1,7,TRUE,67,1,1914.3356,43,DON'T EAT                                    EAT,1913.4407,1895.2922,1662.3091,left,1,left,left,not_eat,not_eat,avoid,neg,avoid-neg,1,1,894.8999999999069
sub-043,69,2,FALSE,left,avoid,neg,fungus14_crop.jpg,1,7,TRUE,68,1,1916.1818,43,DON'T EAT                                    EAT,1915.459,1895.2922,1662.3091,left,1,left,left,not_eat,not_eat,avoid,neg,avoid-neg,1,1,722.8000000000466
sub-043,70,2,FALSE,left,avoid,neg,fungus36_crop.jpg,1,7,TRUE,69,1,1918.2336,43,DON'T EAT                                    EAT,1917.4774,1895.2922,1662.3091,left,1,left,left,not_eat,not_eat,avoid,neg,avoid-neg,1,1,756.2000000001863
sub-043,71,2,FALSE,right,approach,pos,cake39_crop.jpg,1,8,TRUE,70,2,1935.862,43,DON'T EAT                                    EAT,1935.1085,1931.0886,1662.3091,left,2,right,right,eat,eat,approach,pos,approach-pos,1,1,753.5
sub-043,72,2,FALSE,right,approach,pos,cake4_crop.jpg,1,8,TRUE,71,2,1937.7944,43,DON'T EAT                                    EAT,1937.127,1931.0886,1662.3091,left,2,right,right,eat,eat,approach,pos,approach-pos,1,1,667.3999999999069
sub-043,73,2,FALSE,right,approach,pos,cake23_crop.jpg,1,8,TRUE,72,2,1939.9766,43,DON'T EAT                                    EAT,1939.1454,1931.0886,1662.3091,left,2,right,right,eat,eat,approach,pos,approach-pos,1,1,831.1999999997206
sub-043,74,2,FALSE,right,approach,pos,cake5_crop.jpg,1,8,TRUE,73,2,1941.8298,43,DON'T EAT                                    EAT,1941.1636,1931.0886,1662.3091,left,2,right,right,eat,eat,approach,pos,approach-pos,1,1,666.1999999999534
sub-043,75,2,TRUE,right,avoid,neg,fungus32_crop.jpg,1,8,TRUE,74,1,1943.9482,43,DON'T EAT                                    EAT,1943.182,1931.0886,1662.3091,left,1,left,left,not_eat,not_eat,approach,pos,approach-pos,1,1,766.1999999999534
sub-043,76,2,FALSE,right,approach,pos,cake36_crop.jpg,1,8,TRUE,75,2,1945.8575,43,DON'T EAT                                    EAT,1945.2004,1931.0886,1662.3091,left,2,right,right,eat,eat,approach,pos,approach-pos,1,1,657.1000000000931
sub-043,77,2,FALSE,right,approach,pos,cake22_crop.jpg,1,8,TRUE,76,2,1947.9639,43,DON'T EAT                                    EAT,1947.2188,1931.0886,1662.3091,left,2,right,right,eat,eat,approach,pos,approach-pos,1,1,745.0999999998603
sub-043,78,2,FALSE,right,approach,pos,cake20_crop.jpg,1,8,TRUE,77,2,1949.9027,43,DON'T EAT                                    EAT,1949.2372,1931.0886,1662.3091,left,2,right,right,eat,eat,approach,pos,approach-pos,1,1,665.5000000002328
sub-043,79,2,FALSE,right,approach,pos,cake12_crop.jpg,1,8,TRUE,78,2,1951.8348,43,DON'T EAT                                    EAT,1951.2554,1931.0886,1662.3091,left,2,right,right,eat,eat,approach,pos,approach-pos,1,1,579.4000000001397
sub-043,80,2,TRUE,right,avoid,pos,meat18_crop.jpg,1,8,TRUE,79,1,1954.1722,43,DON'T EAT                                    EAT,1953.2738,1931.0886,1662.3091,left,1,left,left,not_eat,not_eat,approach,pos,approach-pos,1,1,898.3999999999069
sub-043,81,0,TRUE,right,avoid,pos,meat2_crop.jpg,2,9,TRUE,80,1,2066.3574,43,DON'T EAT                                    EAT,2065.317,2061.297,2050.224,right,1,left,left,not_eat,not_eat,approach,neg,approach-neg,1,1,1040.3999999999069
sub-043,82,0,FALSE,right,approach,neg,insect13_crop.jpg,2,9,TRUE,81,2,2068.2031,43,DON'T EAT                                    EAT,2067.3357,2061.297,2050.224,right,2,right,right,eat,eat,approach,neg,approach-neg,1,1,867.3999999999069
sub-043,83,0,FALSE,right,approach,neg,insect37_crop.jpg,2,9,TRUE,82,2,2070.8677,43,DON'T EAT                                    EAT,2069.354,2061.297,2050.224,right,2,right,right,eat,eat,approach,neg,approach-neg,1,1,1513.6999999999534
sub-043,84,0,FALSE,right,approach,neg,insect36_crop.jpg,2,9,TRUE,83,2,2072.466,43,DON'T EAT                                    EAT,2071.3723,2061.297,2050.224,right,2,right,right,eat,eat,approach,neg,approach-neg,1,1,1093.6999999999534
sub-043,85,0,FALSE,right,approach,neg,insect24_crop.jpg,2,9,TRUE,84,2,2074.1528,43,DON'T EAT                                    EAT,2073.3906,2061.297,2050.224,right,2,right,right,eat,eat,approach,neg,approach-neg,1,1,762.1999999997206
sub-043,86,0,FALSE,right,approach,neg,insect19_crop.jpg,2,9,TRUE,85,2,2076.1196,43,DON'T EAT                                    EAT,2075.409,2061.297,2050.224,right,2,right,right,eat,eat,approach,neg,approach-neg,1,1,710.6000000000931
sub-043,87,0,FALSE,right,approach,neg,insect31_crop.jpg,2,9,TRUE,86,2,2078.0825,43,DON'T EAT                                    EAT,2077.4272,2061.297,2050.224,right,2,right,right,eat,eat,approach,neg,approach-neg,1,1,655.2999999998137
sub-043,88,0,TRUE,right,avoid,neg,fungus7_crop.jpg,2,9,TRUE,87,1,2080.5679,43,DON'T EAT                                    EAT,2079.4458,2061.297,2050.224,right,1,left,left,not_eat,not_eat,approach,neg,approach-neg,1,1,1122.0999999998603
sub-043,89,0,FALSE,right,approach,neg,insect34_crop.jpg,2,9,TRUE,88,2,2082.1765,43,DON'T EAT                                    EAT,2081.464,2061.297,2050.224,right,2,right,right,eat,eat,approach,neg,approach-neg,1,1,712.5
sub-043,90,0,FALSE,right,approach,neg,insect23_crop.jpg,2,9,TRUE,89,2,2084.1797,43,DON'T EAT                                    EAT,2083.4822,2061.297,2050.224,right,2,right,right,eat,eat,approach,neg,approach-neg,1,1,697.5000000002328
sub-043,91,0,FALSE,left,avoid,pos,meat34_crop.jpg,2,10,TRUE,90,1,2104.3994,43,DON'T EAT                                    EAT,2102.4644,2098.4448,2050.224,right,1,left,left,not_eat,not_eat,avoid,pos,avoid-pos,1,1,1935
sub-043,92,0,FALSE,left,avoid,pos,meat19_crop.jpg,2,10,TRUE,91,1,2105.3818,43,DON'T EAT                                    EAT,2104.4832,2098.4448,2050.224,right,1,left,left,not_eat,not_eat,avoid,pos,avoid-pos,1,1,898.6000000000931
sub-043,93,0,FALSE,left,avoid,pos,meat16_crop.jpg,2,10,TRUE,92,1,2107.3577,43,DON'T EAT                                    EAT,2106.5015,2098.4448,2050.224,right,1,left,left,not_eat,not_eat,avoid,pos,avoid-pos,1,1,856.2000000001863
sub-043,94,0,FALSE,left,avoid,pos,meat27_crop.jpg,2,10,TRUE,93,1,2109.1638,43,DON'T EAT                                    EAT,2108.52,2098.4448,2050.224,right,1,left,left,not_eat,not_eat,avoid,pos,avoid-pos,1,1,643.7999999998137
sub-043,95,0,FALSE,left,avoid,pos,meat1_crop.jpg,2,10,TRUE,94,1,2111.3135,43,DON'T EAT                                    EAT,2110.5383,2098.4448,2050.224,right,1,left,left,not_eat,not_eat,avoid,pos,avoid-pos,1,1,775.1999999997206
sub-043,96,0,FALSE,left,avoid,pos,meat36_crop.jpg,2,10,TRUE,95,1,2113.235,43,DON'T EAT                                    EAT,2112.557,2098.4448,2050.224,right,1,left,left,not_eat,not_eat,avoid,pos,avoid-pos,1,1,678
sub-043,97,0,FALSE,left,avoid,pos,meat26_crop.jpg,2,10,TRUE,96,1,2115.2417,43,DON'T EAT                                    EAT,2114.575,2098.4448,2050.224,right,1,left,left,not_eat,not_eat,avoid,pos,avoid-pos,1,1,666.7000000001863
sub-043,98,0,FALSE,left,avoid,pos,meat7_crop.jpg,2,10,TRUE,97,1,2117.2957,43,DON'T EAT                                    EAT,2116.5928,2098.4448,2050.224,right,1,left,left,not_eat,not_eat,avoid,pos,avoid-pos,1,1,702.9000000003725
sub-043,99,0,TRUE,left,approach,neg,insect38_crop.jpg,2,10,TRUE,98,2,2119.446,43,DON'T EAT                                    EAT,2118.6113,2098.4448,2050.224,right,2,right,right,eat,eat,avoid,pos,avoid-pos,1,1,834.7000000001863
sub-043,100,0,TRUE,left,approach,pos,cake16_crop.jpg,2,10,TRUE,99,2,2121.4128,43,DON'T EAT                                    EAT,2120.63,2098.4448,2050.224,right,2,right,right,eat,eat,avoid,pos,avoid-pos,1,1,782.8000000002794
sub-043,101,2,FALSE,left,approach,neg,insect40_crop.jpg,2,11,TRUE,100,2,2138.0842,43,DON'T EAT                                    EAT,2137.2605,2133.2405,2050.224,right,2,right,right,eat,eat,approach,neg,approach-neg,1,1,823.6999999997206
sub-043,102,2,FALSE,left,approach,neg,insect3_crop.jpg,2,11,TRUE,101,2,2139.998,43,DON'T EAT                                    EAT,2139.2788,2133.2405,2050.224,right,2,right,right,eat,eat,approach,neg,approach-neg,1,1,719.2000000001863
sub-043,103,2,FALSE,left,approach,neg,insect33_crop.jpg,2,11,TRUE,102,2,2141.9106,43,DON'T EAT                                    EAT,2141.297,2133.2405,2050.224,right,2,right,right,eat,eat,approach,neg,approach-neg,1,1,613.6000000000931
sub-043,104,2,FALSE,left,approach,neg,insect14_crop.jpg,2,11,TRUE,103,2,2143.8867,43,DON'T EAT                                    EAT,2143.3157,2133.2405,2050.224,right,2,right,right,eat,eat,approach,neg,approach-neg,1,1,571
sub-043,105,2,FALSE,left,approach,neg,insect20_crop.jpg,2,11,TRUE,104,2,2145.8733,43,DON'T EAT                                    EAT,2145.3337,2133.2405,2050.224,right,2,right,right,eat,eat,approach,neg,approach-neg,1,1,539.6000000000931
sub-043,106,2,FALSE,left,approach,neg,insect28_crop.jpg,2,11,TRUE,105,2,2147.8718,43,DON'T EAT                                    EAT,2147.3518,2133.2405,2050.224,right,2,right,right,eat,eat,approach,neg,approach-neg,1,1,520
sub-043,107,2,TRUE,left,avoid,pos,meat5_crop.jpg,2,11,TRUE,106,1,2150.113,43,DON'T EAT                                    EAT,2149.3706,2133.2405,2050.224,right,1,left,left,not_eat,not_eat,approach,neg,approach-neg,1,1,742.3999999999069
sub-043,108,2,TRUE,left,avoid,neg,fungus24_crop.jpg,2,11,TRUE,107,1,2152.1511,43,DON'T EAT                                    EAT,2151.389,2133.2405,2050.224,right,1,left,left,not_eat,not_eat,approach,neg,approach-neg,1,1,762.1000000000931
sub-043,109,2,FALSE,left,approach,neg,insect24_crop.jpg,2,11,TRUE,108,2,2154.0847,43,DON'T EAT                                    EAT,2153.407,2133.2405,2050.224,right,2,right,right,eat,eat,approach,neg,approach-neg,1,1,677.6999999997206
sub-043,110,2,FALSE,left,approach,neg,insect22_crop.jpg,2,11,TRUE,109,2,2156.1636,43,DON'T EAT                                    EAT,2155.4255,2133.2405,2050.224,right,2,right,right,eat,eat,approach,neg,approach-neg,1,1,738.0999999996275
sub-043,111,3,FALSE,right,approach,neg,insect35_crop.jpg,2,12,TRUE,110,2,2174.5479,43,DON'T EAT                                    EAT,2173.8406,2169.8206,2050.224,right,2,right,right,eat,eat,approach,neg,approach-neg,1,1,707.2999999998137
sub-043,112,3,FALSE,right,approach,neg,insect39_crop.jpg,2,12,TRUE,111,2,2176.4836,43,DON'T EAT                                    EAT,2175.8591,2169.8206,2050.224,right,2,right,right,eat,eat,approach,neg,approach-neg,1,1,624.5
sub-043,113,3,TRUE,right,avoid,neg,fungus27_crop.jpg,2,12,TRUE,112,1,2178.6084,43,DON'T EAT                                    EAT,2177.8772,2169.8206,2050.224,right,1,left,left,not_eat,not_eat,approach,neg,approach-neg,1,1,731.2000000001863
sub-043,114,3,FALSE,right,approach,neg,insect10_crop.jpg,2,12,TRUE,113,2,2180.6475,43,DON'T EAT                                    EAT,2179.8958,2169.8206,2050.224,right,2,right,right,eat,eat,approach,neg,approach-neg,1,1,751.7000000001863
sub-043,115,3,FALSE,right,approach,neg,insect2_crop.jpg,2,12,TRUE,114,2,2182.5874,43,DON'T EAT                                    EAT,2181.9138,2169.8206,2050.224,right,2,right,right,eat,eat,approach,neg,approach-neg,1,1,673.6000000000931
sub-043,116,3,FALSE,right,approach,neg,insect28_crop.jpg,2,12,TRUE,115,2,2184.5435,43,DON'T EAT                                    EAT,2183.9326,2169.8206,2050.224,right,2,right,right,eat,eat,approach,neg,approach-neg,1,1,610.8999999999069
sub-043,117,3,FALSE,right,approach,neg,insect3_crop.jpg,2,12,TRUE,116,2,2186.523,43,DON'T EAT                                    EAT,2185.9504,2169.8206,2050.224,right,2,right,right,eat,eat,approach,neg,approach-neg,1,1,572.5999999996275
sub-043,118,3,FALSE,right,approach,neg,insect29_crop.jpg,2,12,TRUE,117,2,2188.6562,43,DON'T EAT                                    EAT,2187.9692,2169.8206,2050.224,right,2,right,right,eat,eat,approach,neg,approach-neg,1,1,686.9999999995343
sub-043,119,3,TRUE,right,avoid,pos,meat17_crop.jpg,2,12,TRUE,118,1,2190.8232,43,DON'T EAT                                    EAT,2189.9875,2169.8206,2050.224,right,1,left,left,not_eat,not_eat,approach,neg,approach-neg,1,1,835.6999999997206
sub-043,120,3,FALSE,right,approach,neg,insect14_crop.jpg,2,12,TRUE,119,2,2192.657,43,DON'T EAT                                    EAT,2192.0056,2169.8206,2050.224,right,2,right,right,eat,eat,approach,neg,approach-neg,1,1,651.3999999999069
sub-043,121,2,FALSE,right,approach,neg,insect33_crop.jpg,2,13,TRUE,120,2,2212.0105,43,DON'T EAT                                    EAT,2211.322,2207.3018,2050.224,right,2,right,right,eat,eat,approach,neg,approach-neg,1,1,688.5
sub-043,122,2,TRUE,right,avoid,pos,meat30_crop.jpg,2,13,TRUE,121,1,2214.0708,43,DON'T EAT                                    EAT,2213.3403,2207.3018,2050.224,right,1,left,left,not_eat,not_eat,approach,neg,approach-neg,1,1,730.5
sub-043,123,2,FALSE,right,approach,neg,insect4_crop.jpg,2,13,TRUE,122,2,2216.1814,43,DON'T EAT                                    EAT,2215.3586,2207.3018,2050.224,right,2,right,right,eat,eat,approach,neg,approach-neg,1,1,822.7999999998137
sub-043,124,2,FALSE,right,approach,neg,insect17_crop.jpg,2,13,TRUE,123,2,2217.9814,43,DON'T EAT                                    EAT,2217.3767,2207.3018,2050.224,right,2,right,right,eat,eat,approach,neg,approach-neg,1,1,604.7000000001863
sub-043,125,2,FALSE,right,approach,neg,insect40_crop.jpg,2,13,TRUE,124,2,2220.179,43,DON'T EAT                                    EAT,2219.3953,2207.3018,2050.224,right,2,right,right,eat,eat,approach,neg,approach-neg,1,1,783.6999999997206
sub-043,126,2,FALSE,right,approach,neg,insect21_crop.jpg,2,13,TRUE,125,2,2222.0674,43,DON'T EAT                                    EAT,2221.4138,2207.3018,2050.224,right,2,right,right,eat,eat,approach,neg,approach-neg,1,1,653.6000000000931
sub-043,127,2,FALSE,right,approach,neg,insect26_crop.jpg,2,13,TRUE,126,2,2223.9946,43,DON'T EAT                                    EAT,2223.432,2207.3018,2050.224,right,2,right,right,eat,eat,approach,neg,approach-neg,1,1,562.6000000000931
sub-043,128,2,FALSE,right,approach,neg,insect25_crop.jpg,2,13,TRUE,127,2,2226.107,43,DON'T EAT                                    EAT,2225.4504,2207.3018,2050.224,right,2,right,right,eat,eat,approach,neg,approach-neg,1,1,656.5999999996275
sub-043,129,2,TRUE,right,avoid,neg,fungus39_crop.jpg,2,13,TRUE,128,1,2228.3213,43,DON'T EAT                                    EAT,2227.4688,2207.3018,2050.224,right,1,left,left,not_eat,not_eat,approach,neg,approach-neg,1,1,852.5
sub-043,130,2,FALSE,right,approach,neg,insect30_crop.jpg,2,13,TRUE,129,2,2230.1946,43,DON'T EAT                                    EAT,2229.487,2207.3018,2050.224,right,2,right,right,eat,eat,approach,neg,approach-neg,1,1,707.5999999996275
sub-043,131,1,FALSE,right,approach,neg,insect22_crop.jpg,2,14,TRUE,130,2,2249.9446,43,DON'T EAT                                    EAT,2249.2368,2245.2163,2050.224,right,2,right,right,eat,eat,approach,neg,approach-neg,1,1,707.7999999993481
sub-043,132,1,FALSE,right,approach,neg,insect27_crop.jpg,2,14,TRUE,131,2,2251.8274,43,DON'T EAT                                    EAT,2251.2551,2245.2163,2050.224,right,2,right,right,eat,eat,approach,neg,approach-neg,1,1,572.3000000002794
sub-043,133,1,FALSE,right,approach,neg,insect32_crop.jpg,2,14,TRUE,132,2,2253.877,43,DON'T EAT                                    EAT,2253.2737,2245.2163,2050.224,right,2,right,right,eat,eat,approach,neg,approach-neg,1,1,603.2999999998137
sub-043,134,1,TRUE,right,avoid,neg,fungus38_crop.jpg,2,14,TRUE,133,1,2256.0637,43,DON'T EAT                                    EAT,2255.2917,2245.2163,2050.224,right,1,left,left,not_eat,not_eat,approach,neg,approach-neg,1,1,772
sub-043,135,1,TRUE,right,avoid,pos,meat37_crop.jpg,2,14,TRUE,134,1,2258.2095,43,DON'T EAT                                    EAT,2257.3103,2245.2163,2050.224,right,1,left,left,not_eat,not_eat,approach,neg,approach-neg,1,1,899.1999999997206
sub-043,136,1,FALSE,right,approach,neg,insect7_crop.jpg,2,14,TRUE,135,2,2259.9753,43,DON'T EAT                                    EAT,2259.3286,2245.2163,2050.224,right,2,right,right,eat,eat,approach,neg,approach-neg,1,1,646.7000000006519
sub-043,137,1,FALSE,right,approach,neg,insect6_crop.jpg,2,14,TRUE,136,2,2261.9277,43,DON'T EAT                                    EAT,2261.346,2245.2163,2050.224,right,2,right,right,eat,eat,approach,neg,approach-neg,1,1,581.7000000001863
sub-043,138,1,FALSE,right,approach,neg,insect8_crop.jpg,2,14,TRUE,137,2,2263.9495,43,DON'T EAT                                    EAT,2263.365,2245.2163,2050.224,right,2,right,right,eat,eat,approach,neg,approach-neg,1,1,584.5
sub-043,139,1,FALSE,right,approach,neg,insect12_crop.jpg,2,14,TRUE,138,2,2266.0525,43,DON'T EAT                                    EAT,2265.3835,2245.2163,2050.224,right,2,right,right,eat,eat,approach,neg,approach-neg,1,1,669
sub-043,140,1,FALSE,right,approach,neg,insect15_crop.jpg,2,14,TRUE,139,2,2267.9521,43,DON'T EAT                                    EAT,2267.4019,2245.2163,2050.224,right,2,right,right,eat,eat,approach,neg,approach-neg,1,1,550.2000000001863
sub-043,141,2,FALSE,right,avoid,neg,fungus25_crop.jpg,2,15,TRUE,140,1,2284.6182,43,DON'T EAT                                    EAT,2283.7822,2279.7617,2050.224,right,1,left,left,not_eat,not_eat,avoid,neg,avoid-neg,1,1,835.9999999995343
sub-043,142,2,FALSE,right,avoid,neg,fungus2_crop.jpg,2,15,TRUE,141,1,2286.4346,43,DON'T EAT                                    EAT,2285.8005,2279.7617,2050.224,right,1,left,left,not_eat,not_eat,avoid,neg,avoid-neg,1,1,634.1000000000931
sub-043,143,2,TRUE,right,approach,pos,cake2_crop.jpg,2,15,TRUE,142,2,2288.5803,43,DON'T EAT                                    EAT,2287.8188,2279.7617,2050.224,right,2,right,right,eat,eat,avoid,neg,avoid-neg,1,1,761.5000000004657
sub-043,144,2,FALSE,right,avoid,neg,fungus9_crop.jpg,2,15,TRUE,143,1,2290.734,43,DON'T EAT                                    EAT,2289.8372,2279.7617,2050.224,right,1,left,left,not_eat,not_eat,avoid,neg,avoid-neg,1,1,896.8000000002794
sub-043,145,2,FALSE,right,avoid,neg,fungus40_crop.jpg,2,15,TRUE,144,1,2292.7283,43,DON'T EAT                                    EAT,2291.8557,2279.7617,2050.224,right,1,left,left,not_eat,not_eat,avoid,neg,avoid-neg,1,1,872.6000000000931
sub-043,146,2,FALSE,right,avoid,neg,fungus11_crop.jpg,2,15,TRUE,145,1,2294.7314,43,DON'T EAT                                    EAT,2293.874,2279.7617,2050.224,right,1,left,left,not_eat,not_eat,avoid,neg,avoid-neg,1,1,857.3999999999069
sub-043,147,2,FALSE,right,avoid,neg,fungus12_crop.jpg,2,15,TRUE,146,1,2296.7073,43,DON'T EAT                                    EAT,2295.892,2279.7617,2050.224,right,1,left,left,not_eat,not_eat,avoid,neg,avoid-neg,1,1,815.2999999998137
sub-043,148,2,TRUE,right,approach,neg,insect18_crop.jpg,2,15,TRUE,147,2,2298.5767,43,DON'T EAT                                    EAT,2297.9106,2279.7617,2050.224,right,2,right,right,eat,eat,avoid,neg,avoid-neg,1,1,666.1000000000931
sub-043,149,2,FALSE,right,avoid,neg,fungus37_crop.jpg,2,15,TRUE,148,1,2300.6772,43,DON'T EAT                                    EAT,2299.929,2279.7617,2050.224,right,1,left,left,not_eat,not_eat,avoid,neg,avoid-neg,1,1,748.2000000001863
sub-043,150,2,FALSE,right,avoid,neg,fungus22_crop.jpg,2,15,TRUE,149,1,2302.6213,43,DON'T EAT                                    EAT,2301.947,2279.7617,2050.224,right,1,left,left,not_eat,not_eat,avoid,neg,avoid-neg,1,1,674.2999999998137
sub-043,151,1,FALSE,left,avoid,neg,fungus12_crop.jpg,2,16,TRUE,150,1,2321.5159,43,DON'T EAT                                    EAT,2320.6794,2316.6594,2050.224,right,1,left,left,not_eat,not_eat,avoid,neg,avoid-neg,1,1,836.5
sub-043,152,1,FALSE,left,avoid,neg,fungus4_crop.jpg,2,16,TRUE,151,1,2323.3538,43,DON'T EAT                                    EAT,2322.6975,2316.6594,2050.224,right,1,left,left,not_eat,not_eat,avoid,neg,avoid-neg,1,1,656.2999999998137
sub-043,153,1,FALSE,left,avoid,neg,fungus19_crop.jpg,2,16,TRUE,152,1,2325.2893,43,DON'T EAT                                    EAT,2324.7163,2316.6594,2050.224,right,1,left,left,not_eat,not_eat,avoid,neg,avoid-neg,1,1,573
sub-043,154,1,FALSE,left,avoid,neg,fungus18_crop.jpg,2,16,TRUE,153,1,2327.3044,43,DON'T EAT                                    EAT,2326.7346,2316.6594,2050.224,right,1,left,left,not_eat,not_eat,avoid,neg,avoid-neg,1,1,569.8000000002794
sub-043,155,1,FALSE,left,avoid,neg,fungus33_crop.jpg,2,16,TRUE,154,1,2329.294,43,DON'T EAT                                    EAT,2328.753,2316.6594,2050.224,right,1,left,left,not_eat,not_eat,avoid,neg,avoid-neg,1,1,541
sub-043,156,1,FALSE,left,avoid,neg,fungus15_crop.jpg,2,16,TRUE,155,1,2331.3086,43,DON'T EAT                                    EAT,2330.7715,2316.6594,2050.224,right,1,left,left,not_eat,not_eat,avoid,neg,avoid-neg,1,1,537.0999999996275
sub-043,157,1,TRUE,left,approach,pos,cake39_crop.jpg,2,16,TRUE,156,2,2333.5183,43,DON'T EAT                                    EAT,2332.7896,2316.6594,2050.224,right,2,right,right,eat,eat,avoid,neg,avoid-neg,1,1,728.7000000001863
sub-043,158,1,FALSE,left,avoid,neg,fungus35_crop.jpg,2,16,TRUE,157,1,2335.5728,43,DON'T EAT                                    EAT,2334.8076,2316.6594,2050.224,right,1,left,left,not_eat,not_eat,avoid,neg,avoid-neg,1,1,765.1999999997206
sub-043,159,1,FALSE,left,avoid,neg,fungus11_crop.jpg,2,16,TRUE,158,1,2337.4539,43,DON'T EAT                                    EAT,2336.8262,2316.6594,2050.224,right,1,left,left,not_eat,not_eat,avoid,neg,avoid-neg,1,1,627.6999999997206
sub-043,160,1,TRUE,left,approach,neg,insect6_crop.jpg,2,16,TRUE,159,2,2339.5344,43,DON'T EAT                                    EAT,2338.8445,2316.6594,2050.224,right,2,right,right,eat,eat,avoid,neg,avoid-neg,1,1,689.8999999999069
sub-043,161,1,FALSE,right,avoid,neg,fungus24_crop.jpg,3,17,TRUE,160,1,2434.0876,43,DON'T EAT                                    EAT,2433.273,2429.253,2418.1724,left,1,left,left,not_eat,not_eat,avoid,neg,avoid-neg,1,1,814.5999999996275
sub-043,162,1,FALSE,right,avoid,neg,fungus26_crop.jpg,3,17,TRUE,161,1,2435.9043,43,DON'T EAT                                    EAT,2435.2913,2429.253,2418.1724,left,1,left,left,not_eat,not_eat,avoid,neg,avoid-neg,1,1,613.0000000004657
sub-043,163,1,TRUE,right,approach,pos,cake8_crop.jpg,3,17,TRUE,162,2,2438.113,43,DON'T EAT                                    EAT,2437.3096,2429.253,2418.1724,left,2,right,right,eat,eat,avoid,neg,avoid-neg,1,1,803.3999999999069
sub-043,164,1,FALSE,right,avoid,neg,fungus1_crop.jpg,3,17,TRUE,163,1,2440.0146,43,DON'T EAT                                    EAT,2439.328,2429.253,2418.1724,left,1,left,left,not_eat,not_eat,avoid,neg,avoid-neg,1,1,686.6000000000931
sub-043,165,1,TRUE,right,approach,neg,insect16_crop.jpg,3,17,TRUE,164,2,2442.0242,43,DON'T EAT                                    EAT,2441.3464,2429.253,2418.1724,left,2,right,right,eat,eat,avoid,neg,avoid-neg,1,1,677.7999999998137
sub-043,166,1,FALSE,right,avoid,neg,fungus15_crop.jpg,3,17,TRUE,165,1,2443.988,43,DON'T EAT                                    EAT,2443.364,2429.253,2418.1724,left,1,left,left,not_eat,not_eat,avoid,neg,avoid-neg,1,1,624
sub-043,167,1,FALSE,right,avoid,neg,fungus4_crop.jpg,3,17,TRUE,166,1,2446.0068,43,DON'T EAT                                    EAT,2445.3826,2429.253,2418.1724,left,1,left,left,not_eat,not_eat,avoid,neg,avoid-neg,1,1,624.2000000001863
sub-043,168,1,FALSE,right,avoid,neg,fungus17_crop.jpg,3,17,TRUE,167,1,2448.1843,43,DON'T EAT                                    EAT,2447.4014,2429.253,2418.1724,left,1,left,left,not_eat,not_eat,avoid,neg,avoid-neg,1,1,782.8999999994412
sub-043,169,1,FALSE,right,avoid,neg,fungus20_crop.jpg,3,17,TRUE,168,1,2450.1926,43,DON'T EAT                                    EAT,2449.4197,2429.253,2418.1724,left,1,left,left,not_eat,not_eat,avoid,neg,avoid-neg,1,1,772.8999999999069
sub-043,170,1,FALSE,right,avoid,neg,fungus19_crop.jpg,3,17,TRUE,169,1,2452.0408,43,DON'T EAT                                    EAT,2451.438,2429.253,2418.1724,left,1,left,left,not_eat,not_eat,avoid,neg,avoid-neg,1,1,602.8000000002794
sub-043,171,0,FALSE,left,approach,neg,insect13_crop.jpg,3,18,TRUE,170,2,2469.8352,43,DON'T EAT                                    EAT,2469.053,2465.0327,2418.1724,left,2,right,right,eat,eat,approach,neg,approach-neg,1,1,782.2000000001863
sub-043,172,0,FALSE,left,approach,neg,insect9_crop.jpg,3,18,TRUE,171,2,2471.5908,43,DON'T EAT                                    EAT,2471.071,2465.0327,2418.1724,left,2,right,right,eat,eat,approach,neg,approach-neg,1,1,519.7999999998137
sub-043,173,0,TRUE,left,avoid,pos,meat14_crop.jpg,3,18,TRUE,172,1,2474.125,43,DON'T EAT                                    EAT,2473.0894,2465.0327,2418.1724,left,1,left,left,not_eat,not_eat,approach,neg,approach-neg,1,1,1035.6000000000931
sub-043,174,0,FALSE,left,approach,neg,insect36_crop.jpg,3,18,TRUE,173,2,2475.8572,43,DON'T EAT                                    EAT,2475.1077,2465.0327,2418.1724,left,2,right,right,eat,eat,approach,neg,approach-neg,1,1,749.4999999995343
sub-043,175,0,FALSE,left,approach,neg,insect27_crop.jpg,3,18,TRUE,174,2,2477.8645,43,DON'T EAT                                    EAT,2477.126,2465.0327,2418.1724,left,2,right,right,eat,eat,approach,neg,approach-neg,1,1,738.5
sub-043,176,0,FALSE,left,approach,neg,insect8_crop.jpg,3,18,TRUE,175,2,2479.7795,43,DON'T EAT                                    EAT,2479.144,2465.0327,2418.1724,left,2,right,right,eat,eat,approach,neg,approach-neg,1,1,635.5
sub-043,177,0,FALSE,left,approach,neg,insect39_crop.jpg,3,18,TRUE,176,2,2481.7036,43,DON'T EAT                                    EAT,2481.1628,2465.0327,2418.1724,left,2,right,right,eat,eat,approach,neg,approach-neg,1,1,540.7999999993481
sub-043,178,0,TRUE,left,avoid,neg,fungus7_crop.jpg,3,18,TRUE,177,1,2483.9006,43,DON'T EAT                                    EAT,2483.1812,2465.0327,2418.1724,left,1,left,left,not_eat,not_eat,approach,neg,approach-neg,1,1,719.3999999999069
sub-043,179,0,FALSE,left,approach,neg,insect29_crop.jpg,3,18,TRUE,178,2,2486.109,43,DON'T EAT                                    EAT,2485.1995,2465.0327,2418.1724,left,2,right,right,eat,eat,approach,neg,approach-neg,1,1,909.5
sub-043,180,0,FALSE,left,approach,neg,insect19_crop.jpg,3,18,TRUE,179,2,2487.8716,43,DON'T EAT                                    EAT,2487.2178,2465.0327,2418.1724,left,2,right,right,eat,eat,approach,neg,approach-neg,1,1,653.8000000002794
sub-043,181,1,FALSE,left,approach,neg,insect32_crop.jpg,3,19,TRUE,180,2,2504.5403,43,DON'T EAT                                    EAT,2503.881,2499.8616,2418.1724,left,2,right,right,eat,eat,approach,neg,approach-neg,1,1,659.3000000002794
sub-043,182,1,FALSE,left,approach,neg,insect23_crop.jpg,3,19,TRUE,181,2,2506.4111,43,DON'T EAT                                    EAT,2505.9,2499.8616,2418.1724,left,2,right,right,eat,eat,approach,neg,approach-neg,1,1,511.09999999962747
sub-043,183,1,FALSE,left,approach,neg,insect18_crop.jpg,3,19,TRUE,182,2,2508.4587,43,DON'T EAT                                    EAT,2507.9182,2499.8616,2418.1724,left,2,right,right,eat,eat,approach,neg,approach-neg,1,1,540.5
sub-043,184,1,TRUE,left,avoid,neg,fungus22_crop.jpg,3,19,TRUE,183,1,2510.5425,43,DON'T EAT                                    EAT,2509.9368,2499.8616,2418.1724,left,1,left,left,not_eat,not_eat,approach,neg,approach-neg,1,1,605.7000000001863
sub-043,185,1,FALSE,left,approach,neg,insect37_crop.jpg,3,19,TRUE,184,2,2512.65,43,DON'T EAT                                    EAT,2511.955,2499.8616,2418.1724,left,2,right,right,eat,eat,approach,neg,approach-neg,1,1,695
sub-043,186,1,FALSE,left,approach,neg,insect2_crop.jpg,3,19,TRUE,185,2,2514.5789,43,DON'T EAT                                    EAT,2513.9734,2499.8616,2418.1724,left,2,right,right,eat,eat,approach,neg,approach-neg,1,1,605.5
sub-043,187,1,FALSE,left,approach,neg,insect16_crop.jpg,3,19,TRUE,186,2,2516.6692,43,DON'T EAT                                    EAT,2515.9917,2499.8616,2418.1724,left,2,right,right,eat,eat,approach,neg,approach-neg,1,1,677.4999999995343
sub-043,188,1,FALSE,left,approach,neg,insect21_crop.jpg,3,19,TRUE,187,2,2518.6128,43,DON'T EAT                                    EAT,2518.01,2499.8616,2418.1724,left,2,right,right,eat,eat,approach,neg,approach-neg,1,1,602.7999999998137
sub-043,189,1,TRUE,left,avoid,pos,meat15_crop.jpg,3,19,TRUE,188,1,2520.761,43,DON'T EAT                                    EAT,2520.0283,2499.8616,2418.1724,left,1,left,left,not_eat,not_eat,approach,neg,approach-neg,1,1,732.7000000001863
sub-043,190,1,FALSE,left,approach,neg,insect31_crop.jpg,3,19,TRUE,189,2,2522.6694,43,DON'T EAT                                    EAT,2522.0469,2499.8616,2418.1724,left,2,right,right,eat,eat,approach,neg,approach-neg,1,1,622.5000000004657
sub-043,191,1,FALSE,left,approach,pos,cake10_crop.jpg,3,20,TRUE,190,2,2542.6448,43,DON'T EAT                                    EAT,2541.613,2537.5928,2418.1724,left,2,right,right,eat,eat,approach,pos,approach-pos,1,1,1031.7999999998137
sub-043,192,1,FALSE,left,approach,pos,cake1_crop.jpg,3,20,TRUE,191,2,2544.2236,43,DON'T EAT                                    EAT,2543.6313,2537.5928,2418.1724,left,2,right,right,eat,eat,approach,pos,approach-pos,1,1,592.2999999998137
sub-043,193,1,FALSE,left,approach,pos,cake12_crop.jpg,3,20,TRUE,192,2,2546.1465,43,DON'T EAT                                    EAT,2545.6497,2537.5928,2418.1724,left,2,right,right,eat,eat,approach,pos,approach-pos,1,1,496.8000000002794
sub-043,194,1,FALSE,left,approach,pos,cake36_crop.jpg,3,20,TRUE,193,2,2548.1646,43,DON'T EAT                                    EAT,2547.668,2537.5928,2418.1724,left,2,right,right,eat,eat,approach,pos,approach-pos,1,1,496.60000000009313
sub-043,195,1,FALSE,left,approach,pos,cake17_crop.jpg,3,20,TRUE,194,2,2550.3,43,DON'T EAT                                    EAT,2549.6863,2537.5928,2418.1724,left,2,right,right,eat,eat,approach,pos,approach-pos,1,1,613.7000000001863
sub-043,196,1,TRUE,left,avoid,pos,meat2_crop.jpg,3,20,TRUE,195,1,2552.4763,43,DON'T EAT                                    EAT,2551.7048,2537.5928,2418.1724,left,1,left,left,not_eat,not_eat,approach,pos,approach-pos,1,1,771.5
sub-043,197,1,FALSE,left,approach,pos,cake24_crop.jpg,3,20,TRUE,196,2,2554.433,43,DON'T EAT                                    EAT,2553.7231,2537.5928,2418.1724,left,2,right,right,eat,eat,approach,pos,approach-pos,1,1,709.8999999999069
sub-043,198,1,FALSE,left,approach,pos,cake38_crop.jpg,3,20,TRUE,197,2,2556.409,43,DON'T EAT                                    EAT,2555.7412,2537.5928,2418.1724,left,2,right,right,eat,eat,approach,pos,approach-pos,1,1,667.8000000002794
sub-043,199,1,FALSE,left,approach,pos,cake32_crop.jpg,3,20,TRUE,198,2,2558.3381,43,DON'T EAT                                    EAT,2557.7593,2537.5928,2418.1724,left,2,right,right,eat,eat,approach,pos,approach-pos,1,1,578.7999999998137
sub-043,200,1,TRUE,left,avoid,neg,fungus13_crop.jpg,3,20,TRUE,199,1,2560.7705,43,DON'T EAT                                    EAT,2559.778,2537.5928,2418.1724,left,1,left,left,not_eat,not_eat,approach,pos,approach-pos,1,1,992.5
sub-043,201,0,TRUE,right,avoid,neg,fungus13_crop.jpg,3,21,TRUE,200,1,2577.657,43,DON'T EAT                                    EAT,2576.8423,2572.8223,2418.1724,left,1,left,left,not_eat,not_eat,approach,pos,approach-pos,1,1,814.7000000001863
sub-043,202,0,FALSE,right,approach,pos,cake30_crop.jpg,3,21,TRUE,201,2,2579.5273,43,DON'T EAT                                    EAT,2578.8606,2572.8223,2418.1724,left,2,right,right,eat,eat,approach,pos,approach-pos,1,1,666.7000000001863
sub-043,203,0,TRUE,right,avoid,pos,meat5_crop.jpg,3,21,TRUE,202,1,2581.6516,43,DON'T EAT                                    EAT,2580.879,2572.8223,2418.1724,left,1,left,left,not_eat,not_eat,approach,pos,approach-pos,1,1,772.6000000000931
sub-043,204,0,FALSE,right,approach,pos,cake40_crop.jpg,3,21,TRUE,203,2,2583.5735,43,DON'T EAT                                    EAT,2582.897,2572.8223,2418.1724,left,2,right,right,eat,eat,approach,pos,approach-pos,1,1,676.5
sub-043,205,0,FALSE,right,approach,pos,cake6_crop.jpg,3,21,TRUE,204,2,2585.5815,43,DON'T EAT                                    EAT,2584.9155,2572.8223,2418.1724,left,2,right,right,eat,eat,approach,pos,approach-pos,1,1,666
sub-043,206,0,FALSE,right,approach,pos,cake33_crop.jpg,3,21,TRUE,205,2,2587.704,43,DON'T EAT                                    EAT,2586.934,2572.8223,2418.1724,left,2,right,right,eat,eat,approach,pos,approach-pos,1,1,770
sub-043,207,0,FALSE,right,approach,pos,cake13_crop.jpg,3,21,TRUE,206,2,2589.6082,43,DON'T EAT                                    EAT,2588.952,2572.8223,2418.1724,left,2,right,right,eat,eat,approach,pos,approach-pos,1,1,656.2000000001863
sub-043,208,0,FALSE,right,approach,pos,cake26_crop.jpg,3,21,TRUE,207,2,2591.5835,43,DON'T EAT                                    EAT,2590.9702,2572.8223,2418.1724,left,2,right,right,eat,eat,approach,pos,approach-pos,1,1,613.2999999998137
sub-043,209,0,FALSE,right,approach,pos,cake7_crop.jpg,3,21,TRUE,208,2,2593.5713,43,DON'T EAT                                    EAT,2592.989,2572.8223,2418.1724,left,2,right,right,eat,eat,approach,pos,approach-pos,1,1,582.3000000002794
sub-043,210,0,FALSE,right,approach,pos,cake34_crop.jpg,3,21,TRUE,209,2,2595.6934,43,DON'T EAT                                    EAT,2595.007,2572.8223,2418.1724,left,2,right,right,eat,eat,approach,pos,approach-pos,1,1,686.3999999999069
sub-043,211,1,FALSE,right,avoid,pos,meat26_crop.jpg,3,22,TRUE,210,1,2613.7307,43,DON'T EAT                                    EAT,2612.788,2608.7686,2418.1724,left,1,left,left,not_eat,not_eat,avoid,pos,avoid-pos,1,1,942.7000000001863
sub-043,212,1,FALSE,right,avoid,pos,meat1_crop.jpg,3,22,TRUE,211,1,2615.666,43,DON'T EAT                                    EAT,2614.8071,2608.7686,2418.1724,left,1,left,left,not_eat,not_eat,avoid,pos,avoid-pos,1,1,858.8999999999069
sub-043,213,1,FALSE,right,avoid,pos,meat27_crop.jpg,3,22,TRUE,212,1,2617.6406,43,DON'T EAT                                    EAT,2616.8254,2608.7686,2418.1724,left,1,left,left,not_eat,not_eat,avoid,pos,avoid-pos,1,1,815.1999999997206
sub-043,214,1,FALSE,right,avoid,pos,meat4_crop.jpg,3,22,TRUE,213,1,2619.5337,43,DON'T EAT                                    EAT,2618.8438,2608.7686,2418.1724,left,1,left,left,not_eat,not_eat,avoid,pos,avoid-pos,1,1,689.8999999999069
sub-043,215,1,FALSE,right,avoid,pos,meat21_crop.jpg,3,22,TRUE,214,1,2621.57,43,DON'T EAT                                    EAT,2620.862,2608.7686,2418.1724,left,1,left,left,not_eat,not_eat,avoid,pos,avoid-pos,1,1,708
sub-043,216,1,FALSE,right,avoid,pos,meat9_crop.jpg,3,22,TRUE,215,1,2623.8047,43,DON'T EAT                                    EAT,2622.8806,2608.7686,2418.1724,left,1,left,left,not_eat,not_eat,avoid,pos,avoid-pos,1,1,924.1000000000931
sub-043,217,1,TRUE,right,approach,pos,cake16_crop.jpg,3,22,TRUE,216,2,2625.5847,43,DON'T EAT                                    EAT,2624.8982,2608.7686,2418.1724,left,2,right,right,eat,eat,avoid,pos,avoid-pos,1,1,686.4999999995343
sub-043,218,1,FALSE,right,avoid,pos,meat40_crop.jpg,3,22,TRUE,217,1,2627.6345,43,DON'T EAT                                    EAT,2626.917,2608.7686,2418.1724,left,1,left,left,not_eat,not_eat,avoid,pos,avoid-pos,1,1,717.5
sub-043,219,1,FALSE,right,avoid,pos,meat6_crop.jpg,3,22,TRUE,218,1,2629.6763,43,DON'T EAT                                    EAT,2628.9355,2608.7686,2418.1724,left,1,left,left,not_eat,not_eat,avoid,pos,avoid-pos,1,1,740.8000000002794
sub-043,220,1,TRUE,right,approach,neg,insect9_crop.jpg,3,22,TRUE,219,2,2631.6296,43,DON'T EAT                                    EAT,2630.9539,2608.7686,2418.1724,left,2,right,right,eat,eat,avoid,pos,avoid-pos,1,1,675.7000000001863
sub-043,221,3,FALSE,right,avoid,neg,fungus35_crop.jpg,3,23,TRUE,220,1,2649.7246,43,DON'T EAT                                    EAT,2648.8184,2644.7986,2418.1724,left,1,left,left,not_eat,not_eat,avoid,neg,avoid-neg,1,1,906.2000000001863
sub-043,222,3,FALSE,right,avoid,neg,fungus21_crop.jpg,3,23,TRUE,221,1,2651.4207,43,DON'T EAT                                    EAT,2650.8372,2644.7986,2418.1724,left,1,left,left,not_eat,not_eat,avoid,neg,avoid-neg,1,1,583.5000000004657
sub-043,223,3,TRUE,right,approach,pos,cake38_crop.jpg,3,23,TRUE,222,2,2653.6294,43,DON'T EAT                                    EAT,2652.855,2644.7986,2418.1724,left,2,right,right,eat,eat,avoid,neg,avoid-neg,1,1,774.3999999999069
sub-043,224,3,FALSE,right,avoid,neg,fungus29_crop.jpg,3,23,TRUE,223,1,2655.607,43,DON'T EAT                                    EAT,2654.8738,2644.7986,2418.1724,left,1,left,left,not_eat,not_eat,avoid,neg,avoid-neg,1,1,733.2000000001863
sub-043,225,3,TRUE,right,approach,neg,insect1_crop.jpg,3,23,TRUE,224,2,2657.568,43,DON'T EAT                                    EAT,2656.892,2644.7986,2418.1724,left,2,right,right,eat,eat,avoid,neg,avoid-neg,1,1,676
sub-043,226,3,FALSE,right,avoid,neg,fungus3_crop.jpg,3,23,TRUE,225,1,2659.6313,43,DON'T EAT                                    EAT,2658.9104,2644.7986,2418.1724,left,1,left,left,not_eat,not_eat,avoid,neg,avoid-neg,1,1,720.8999999994412
sub-043,227,3,FALSE,right,avoid,neg,fungus30_crop.jpg,3,23,TRUE,226,1,2661.7102,43,DON'T EAT                                    EAT,2660.9287,2644.7986,2418.1724,left,1,left,left,not_eat,not_eat,avoid,neg,avoid-neg,1,1,781.5000000004657
sub-043,228,3,FALSE,right,avoid,neg,fungus36_crop.jpg,3,23,TRUE,227,1,2663.6572,43,DON'T EAT                                    EAT,2662.947,2644.7986,2418.1724,left,1,left,left,not_eat,not_eat,avoid,neg,avoid-neg,1,1,710.2000000001863
sub-043,229,3,FALSE,right,avoid,neg,fungus18_crop.jpg,3,23,TRUE,228,1,2665.5781,43,DON'T EAT                                    EAT,2664.965,2644.7986,2418.1724,left,1,left,left,not_eat,not_eat,avoid,neg,avoid-neg,1,1,613.1000000000931
sub-043,230,3,FALSE,right,avoid,neg,fungus16_crop.jpg,3,23,TRUE,229,1,2668.138,43,DON'T EAT                                    EAT,2666.9836,2644.7986,2418.1724,left,1,left,left,not_eat,not_eat,avoid,neg,avoid-neg,1,1,1154.3999999999069
sub-043,231,2,FALSE,right,avoid,pos,meat24_crop.jpg,3,24,TRUE,230,1,2684.8877,43,DON'T EAT                                    EAT,2684.0312,2680.0112,2418.1724,left,1,left,left,not_eat,not_eat,avoid,pos,avoid-pos,1,1,856.5000000004657
sub-043,232,2,FALSE,right,avoid,pos,meat34_crop.jpg,3,24,TRUE,231,1,2686.791,43,DON'T EAT                                    EAT,2686.0496,2680.0112,2418.1724,left,1,left,left,not_eat,not_eat,avoid,pos,avoid-pos,1,1,741.4000000003725
sub-043,233,2,TRUE,right,approach,pos,cake9_crop.jpg,3,24,TRUE,232,2,2688.84,43,DON'T EAT                                    EAT,2688.068,2680.0112,2418.1724,left,2,right,right,eat,eat,avoid,pos,avoid-pos,1,1,772
sub-043,234,2,FALSE,right,avoid,pos,meat20_crop.jpg,3,24,TRUE,233,1,2690.7844,43,DON'T EAT                                    EAT,2690.0864,2680.0112,2418.1724,left,1,left,left,not_eat,not_eat,avoid,pos,avoid-pos,1,1,697.9999999995343
sub-043,235,2,FALSE,right,avoid,pos,meat15_crop.jpg,3,24,TRUE,234,1,2692.8088,43,DON'T EAT                                    EAT,2692.1047,2680.0112,2418.1724,left,1,left,left,not_eat,not_eat,avoid,pos,avoid-pos,1,1,704.1000000000931
sub-043,236,2,TRUE,right,approach,neg,insect5_crop.jpg,3,24,TRUE,235,2,2694.758,43,DON'T EAT                                    EAT,2694.123,2680.0112,2418.1724,left,2,right,right,eat,eat,avoid,pos,avoid-pos,1,1,635
sub-043,237,2,FALSE,right,avoid,pos,meat10_crop.jpg,3,24,TRUE,236,1,2696.852,43,DON'T EAT                                    EAT,2696.141,2680.0112,2418.1724,left,1,left,left,not_eat,not_eat,avoid,pos,avoid-pos,1,1,711
sub-043,238,2,FALSE,right,avoid,pos,meat32_crop.jpg,3,24,TRUE,237,1,2698.8665,43,DON'T EAT                                    EAT,2698.1597,2680.0112,2418.1724,left,1,left,left,not_eat,not_eat,avoid,pos,avoid-pos,1,1,706.7999999998137
sub-043,239,2,FALSE,right,avoid,pos,meat35_crop.jpg,3,24,TRUE,238,1,2700.9746,43,DON'T EAT                                    EAT,2700.178,2680.0112,2418.1724,left,1,left,left,not_eat,not_eat,avoid,pos,avoid-pos,1,1,796.6000000000931
sub-043,240,2,FALSE,right,avoid,pos,meat25_crop.jpg,3,24,TRUE,239,1,2702.9558,43,DON'T EAT                                    EAT,2702.1965,2680.0112,2418.1724,left,1,left,left,not_eat,not_eat,avoid,pos,avoid-pos,1,1,759.3000000002794
sub-043,241,0,FALSE,right,avoid,neg,fungus33_crop.jpg,4,25,TRUE,240,1,2806.9558,43,DON'T EAT                                    EAT,2806.2156,2802.1963,2788.7556,right,1,left,left,not_eat,not_eat,avoid,neg,avoid-neg,1,1,740.2000000001863
sub-043,242,0,FALSE,right,avoid,neg,fungus14_crop.jpg,4,25,TRUE,241,1,2808.8179,43,DON'T EAT                                    EAT,2808.2346,2802.1963,2788.7556,right,1,left,left,not_eat,not_eat,avoid,neg,avoid-neg,1,1,583.3000000002794
sub-043,243,0,FALSE,right,avoid,neg,fungus10_crop.jpg,4,25,TRUE,242,1,2810.91,43,DON'T EAT                                    EAT,2810.253,2802.1963,2788.7556,right,1,left,left,not_eat,not_eat,avoid,neg,avoid-neg,1,1,657
sub-043,244,0,FALSE,right,avoid,neg,fungus8_crop.jpg,4,25,TRUE,243,1,2812.8547,43,DON'T EAT                                    EAT,2812.2712,2802.1963,2788.7556,right,1,left,left,not_eat,not_eat,avoid,neg,avoid-neg,1,1,583.4999999995343
sub-043,245,0,TRUE,right,approach,neg,insect20_crop.jpg,4,25,TRUE,244,2,2815.2559,43,DON'T EAT                                    EAT,2814.2896,2802.1963,2788.7556,right,2,right,right,eat,eat,avoid,neg,avoid-neg,1,1,966.2999999998137
sub-043,246,0,FALSE,right,avoid,neg,fungus28_crop.jpg,4,25,TRUE,245,1,2816.9834,43,DON'T EAT                                    EAT,2816.3074,2802.1963,2788.7556,right,1,left,left,not_eat,not_eat,avoid,neg,avoid-neg,1,1,675.9999999995343
sub-043,247,0,TRUE,right,approach,pos,cake19_crop.jpg,4,25,TRUE,246,2,2819.1729,43,DON'T EAT                                    EAT,2818.3262,2802.1963,2788.7556,right,2,right,right,eat,eat,avoid,neg,avoid-neg,1,1,846.6999999997206
sub-043,248,0,FALSE,right,avoid,neg,fungus5_crop.jpg,4,25,TRUE,247,1,2821.046,43,DON'T EAT                                    EAT,2820.3445,2802.1963,2788.7556,right,1,left,left,not_eat,not_eat,avoid,neg,avoid-neg,1,1,701.5
sub-043,249,0,FALSE,right,avoid,neg,fungus6_crop.jpg,4,25,TRUE,248,1,2822.951,43,DON'T EAT                                    EAT,2822.3628,2802.1963,2788.7556,right,1,left,left,not_eat,not_eat,avoid,neg,avoid-neg,1,1,588.2000000001863
sub-043,250,0,FALSE,right,avoid,neg,fungus31_crop.jpg,4,25,TRUE,249,1,2824.9734,43,DON'T EAT                                    EAT,2824.381,2802.1963,2788.7556,right,1,left,left,not_eat,not_eat,avoid,neg,avoid-neg,1,1,592.3999999999069
sub-043,251,3,TRUE,right,approach,neg,insect38_crop.jpg,4,26,TRUE,250,2,2842.2195,43,DON'T EAT                                    EAT,2841.3953,2837.375,2788.7556,right,2,right,right,eat,eat,avoid,pos,avoid-pos,1,1,824.1999999997206
sub-043,252,3,FALSE,right,avoid,pos,meat3_crop.jpg,4,26,TRUE,251,1,2844.5364,43,DON'T EAT                                    EAT,2843.4138,2837.375,2788.7556,right,1,left,left,not_eat,not_eat,avoid,pos,avoid-pos,1,1,1122.6000000000931
sub-043,253,3,FALSE,right,avoid,pos,meat22_crop.jpg,4,26,TRUE,252,1,2846.174,43,DON'T EAT                                    EAT,2845.432,2837.375,2788.7556,right,1,left,left,not_eat,not_eat,avoid,pos,avoid-pos,1,1,742
sub-043,254,3,FALSE,right,avoid,pos,meat13_crop.jpg,4,26,TRUE,253,1,2848.139,43,DON'T EAT                                    EAT,2847.4504,2837.375,2788.7556,right,1,left,left,not_eat,not_eat,avoid,pos,avoid-pos,1,1,688.5999999996275
sub-043,255,3,FALSE,right,avoid,pos,meat33_crop.jpg,4,26,TRUE,254,1,2850.472,43,DON'T EAT                                    EAT,2849.4688,2837.375,2788.7556,right,1,left,left,not_eat,not_eat,avoid,pos,avoid-pos,1,1,1003.1999999997206
sub-043,256,3,FALSE,right,avoid,pos,meat14_crop.jpg,4,26,TRUE,255,1,2852.1877,43,DON'T EAT                                    EAT,2851.4866,2837.375,2788.7556,right,1,left,left,not_eat,not_eat,avoid,pos,avoid-pos,1,1,701.0999999996275
sub-043,257,3,TRUE,right,approach,pos,cake31_crop.jpg,4,26,TRUE,256,2,2854.4348,43,DON'T EAT                                    EAT,2853.5054,2837.375,2788.7556,right,2,right,right,eat,eat,avoid,pos,avoid-pos,1,1,929.3999999999069
sub-043,258,3,FALSE,right,avoid,pos,meat38_crop.jpg,4,26,TRUE,257,1,2856.2556,43,DON'T EAT                                    EAT,2855.524,2837.375,2788.7556,right,1,left,left,not_eat,not_eat,avoid,pos,avoid-pos,1,1,731.6000000000931
sub-043,259,3,FALSE,right,avoid,pos,meat7_crop.jpg,4,26,TRUE,258,1,2858.1638,43,DON'T EAT                                    EAT,2857.542,2837.375,2788.7556,right,1,left,left,not_eat,not_eat,avoid,pos,avoid-pos,1,1,621.7999999998137
sub-043,260,3,FALSE,right,avoid,pos,meat11_crop.jpg,4,26,TRUE,259,1,2860.2473,43,DON'T EAT                                    EAT,2859.5605,2837.375,2788.7556,right,1,left,left,not_eat,not_eat,avoid,pos,avoid-pos,1,1,686.7999999998137
sub-043,261,2,TRUE,left,approach,neg,insect7_crop.jpg,4,27,TRUE,260,2,2880.2727,43,DON'T EAT                                    EAT,2879.477,2875.457,2788.7556,right,2,right,right,eat,eat,avoid,pos,avoid-pos,1,1,795.7000000001863
sub-043,262,2,FALSE,left,avoid,pos,meat25_crop.jpg,4,27,TRUE,261,1,2882.49,43,DON'T EAT                                    EAT,2881.4954,2875.457,2788.7556,right,1,left,left,not_eat,not_eat,avoid,pos,avoid-pos,1,1,994.6000000000931
sub-043,263,2,FALSE,left,avoid,pos,meat21_crop.jpg,4,27,TRUE,262,1,2884.1934,43,DON'T EAT                                    EAT,2883.5137,2875.457,2788.7556,right,1,left,left,not_eat,not_eat,avoid,pos,avoid-pos,1,1,679.6999999997206
sub-043,264,2,FALSE,left,avoid,pos,meat24_crop.jpg,4,27,TRUE,263,1,2886.2314,43,DON'T EAT                                    EAT,2885.532,2875.457,2788.7556,right,1,left,left,not_eat,not_eat,avoid,pos,avoid-pos,1,1,699.3999999999069
sub-043,265,2,FALSE,left,avoid,pos,meat3_crop.jpg,4,27,TRUE,264,1,2888.3623,43,DON'T EAT                                    EAT,2887.5503,2875.457,2788.7556,right,1,left,left,not_eat,not_eat,avoid,pos,avoid-pos,1,1,812
sub-043,266,2,FALSE,left,avoid,pos,meat32_crop.jpg,4,27,TRUE,265,1,2890.286,43,DON'T EAT                                    EAT,2889.5684,2875.457,2788.7556,right,1,left,left,not_eat,not_eat,avoid,pos,avoid-pos,1,1,717.6000000000931
sub-043,267,2,FALSE,left,avoid,pos,meat39_crop.jpg,4,27,TRUE,266,1,2893.116,43,DON'T EAT                                    EAT,2891.587,2875.457,2788.7556,right,1,left,left,not_eat,not_eat,avoid,pos,avoid-pos,1,1,1529
sub-043,268,2,FALSE,left,avoid,pos,meat10_crop.jpg,4,27,TRUE,267,1,2894.4924,43,DON'T EAT                                    EAT,2893.6055,2875.457,2788.7556,right,1,left,left,not_eat,not_eat,avoid,pos,avoid-pos,1,1,886.8999999999069
sub-043,269,2,TRUE,left,approach,pos,cake33_crop.jpg,4,27,TRUE,268,2,2896.4912,43,DON'T EAT                                    EAT,2895.6238,2875.457,2788.7556,right,2,right,right,eat,eat,avoid,pos,avoid-pos,1,1,867.3999999999069
sub-043,270,2,FALSE,left,avoid,pos,meat18_crop.jpg,4,27,TRUE,269,1,2898.4678,43,DON'T EAT                                    EAT,2897.642,2875.457,2788.7556,right,1,left,left,not_eat,not_eat,avoid,pos,avoid-pos,1,1,825.7999999998137
sub-043,271,1,FALSE,right,approach,pos,cake37_crop.jpg,4,28,TRUE,270,2,2918.0422,43,DON'T EAT                                    EAT,2917.2078,2913.1882,2788.7556,right,2,right,right,eat,eat,approach,pos,approach-pos,1,1,834.3999999994412
sub-043,272,1,TRUE,right,avoid,neg,fungus34_crop.jpg,4,28,TRUE,271,1,2920.0425,43,DON'T EAT                                    EAT,2919.2266,2913.1882,2788.7556,right,1,left,left,not_eat,not_eat,approach,pos,approach-pos,1,1,815.8999999999069
sub-043,273,1,TRUE,right,avoid,pos,meat23_crop.jpg,4,28,TRUE,272,1,2922.123,43,DON'T EAT                                    EAT,2921.245,2913.1882,2788.7556,right,1,left,left,not_eat,not_eat,approach,pos,approach-pos,1,1,878
sub-043,274,1,FALSE,right,approach,pos,cake32_crop.jpg,4,28,TRUE,273,2,2924.1465,43,DON'T EAT                                    EAT,2923.2634,2913.1882,2788.7556,right,2,right,right,eat,eat,approach,pos,approach-pos,1,1,883.1000000000931
sub-043,275,1,FALSE,right,approach,pos,cake27_crop.jpg,4,28,TRUE,274,2,2926.076,43,DON'T EAT                                    EAT,2925.2817,2913.1882,2788.7556,right,2,right,right,eat,eat,approach,pos,approach-pos,1,1,794.2999999998137
sub-043,276,1,FALSE,right,approach,pos,cake25_crop.jpg,4,28,TRUE,275,2,2928.07,43,DON'T EAT                                    EAT,2927.2996,2913.1882,2788.7556,right,2,right,right,eat,eat,approach,pos,approach-pos,1,1,770.4000000003725
sub-043,277,1,FALSE,right,approach,pos,cake17_crop.jpg,4,28,TRUE,276,2,2930.0354,43,DON'T EAT                                    EAT,2929.3184,2913.1882,2788.7556,right,2,right,right,eat,eat,approach,pos,approach-pos,1,1,717.0000000004657
sub-043,278,1,FALSE,right,approach,pos,cake29_crop.jpg,4,28,TRUE,277,2,2932.0085,43,DON'T EAT                                    EAT,2931.3367,2913.1882,2788.7556,right,2,right,right,eat,eat,approach,pos,approach-pos,1,1,671.8000000002794
sub-043,279,1,FALSE,right,approach,pos,cake21_crop.jpg,4,28,TRUE,278,2,2934.0332,43,DON'T EAT                                    EAT,2933.3552,2913.1882,2788.7556,right,2,right,right,eat,eat,approach,pos,approach-pos,1,1,677.9999999995343
sub-043,280,1,FALSE,right,approach,pos,cake18_crop.jpg,4,28,TRUE,279,2,2936.2832,43,DON'T EAT                                    EAT,2935.3735,2913.1882,2788.7556,right,2,right,right,eat,eat,approach,pos,approach-pos,1,1,909.6999999997206
sub-043,281,1,TRUE,left,approach,pos,cake7_crop.jpg,4,29,TRUE,280,2,2955.389,43,DON'T EAT                                    EAT,2954.5723,2950.5527,2788.7556,right,2,right,right,eat,eat,avoid,pos,avoid-pos,1,1,816.7000000001863
sub-043,282,1,FALSE,left,avoid,pos,meat40_crop.jpg,4,29,TRUE,281,1,2957.2876,43,DON'T EAT                                    EAT,2956.5908,2950.5527,2788.7556,right,1,left,left,not_eat,not_eat,avoid,pos,avoid-pos,1,1,696.8000000002794
sub-043,283,1,FALSE,left,avoid,pos,meat38_crop.jpg,4,29,TRUE,282,1,2959.2327,43,DON'T EAT                                    EAT,2958.6091,2950.5527,2788.7556,right,1,left,left,not_eat,not_eat,avoid,pos,avoid-pos,1,1,623.6000000000931
sub-043,284,1,FALSE,left,avoid,pos,meat11_crop.jpg,4,29,TRUE,283,1,2961.8328,43,DON'T EAT                                    EAT,2960.6277,2950.5527,2788.7556,right,1,left,left,not_eat,not_eat,avoid,pos,avoid-pos,1,1,1205.1000000000931
sub-043,285,1,FALSE,left,avoid,pos,meat12_crop.jpg,4,29,TRUE,284,1,2963.3525,43,DON'T EAT                                    EAT,2962.6462,2950.5527,2788.7556,right,1,left,left,not_eat,not_eat,avoid,pos,avoid-pos,1,1,706.2999999998137
sub-043,286,1,FALSE,left,avoid,pos,meat35_crop.jpg,4,29,TRUE,285,1,2965.481,43,DON'T EAT                                    EAT,2964.6646,2950.5527,2788.7556,right,1,left,left,not_eat,not_eat,avoid,pos,avoid-pos,1,1,816.3999999999069
sub-043,287,1,FALSE,left,avoid,pos,meat8_crop.jpg,4,29,TRUE,286,1,2967.3489,43,DON'T EAT                                    EAT,2966.6829,2950.5527,2788.7556,right,1,left,left,not_eat,not_eat,avoid,pos,avoid-pos,1,1,666
sub-043,288,1,FALSE,left,avoid,pos,meat30_crop.jpg,4,29,TRUE,287,1,2969.4722,43,DON'T EAT                                    EAT,2968.7007,2950.5527,2788.7556,right,1,left,left,not_eat,not_eat,avoid,pos,avoid-pos,1,1,771.5000000004657
sub-043,289,1,TRUE,left,approach,neg,insect5_crop.jpg,4,29,TRUE,288,2,2971.5022,43,DON'T EAT                                    EAT,2970.7195,2950.5527,2788.7556,right,2,right,right,eat,eat,avoid,pos,avoid-pos,1,1,782.6999999997206
sub-043,290,1,FALSE,left,avoid,pos,meat29_crop.jpg,4,29,TRUE,289,1,2973.5544,43,DON'T EAT                                    EAT,2972.7378,2950.5527,2788.7556,right,1,left,left,not_eat,not_eat,avoid,pos,avoid-pos,1,1,816.6000000000931
sub-043,291,3,FALSE,left,approach,neg,insect12_crop.jpg,4,30,TRUE,290,2,2991.5037,43,DON'T EAT                                    EAT,2990.8022,2986.7827,2788.7556,right,2,right,right,eat,eat,approach,neg,approach-neg,1,1,701.5
sub-043,292,3,FALSE,left,approach,neg,insect10_crop.jpg,4,30,TRUE,291,2,2993.3423,43,DON'T EAT                                    EAT,2992.8208,2986.7827,2788.7556,right,2,right,right,eat,eat,approach,neg,approach-neg,1,1,521.5
sub-043,293,3,FALSE,left,approach,neg,insect17_crop.jpg,4,30,TRUE,292,2,2995.4868,43,DON'T EAT                                    EAT,2994.8396,2986.7827,2788.7556,right,2,right,right,eat,eat,approach,neg,approach-neg,1,1,647.2000000006519
sub-043,294,3,FALSE,left,approach,neg,insect26_crop.jpg,4,30,TRUE,293,2,2997.4705,43,DON'T EAT                                    EAT,2996.8577,2986.7827,2788.7556,right,2,right,right,eat,eat,approach,neg,approach-neg,1,1,612.7999999998137
sub-043,295,3,TRUE,left,avoid,pos,meat31_crop.jpg,4,30,TRUE,294,1,2999.563,43,DON'T EAT                                    EAT,2998.8762,2986.7827,2788.7556,right,1,left,left,not_eat,not_eat,approach,neg,approach-neg,1,1,686.7999999998137
sub-043,296,3,FALSE,left,approach,neg,insect34_crop.jpg,4,30,TRUE,295,2,3001.5828,43,DON'T EAT                                    EAT,3000.8945,2986.7827,2788.7556,right,2,right,right,eat,eat,approach,neg,approach-neg,1,1,688.3000000002794
sub-043,297,3,FALSE,left,approach,neg,insect4_crop.jpg,4,30,TRUE,296,2,3003.6567,43,DON'T EAT                                    EAT,3002.9124,2986.7827,2788.7556,right,2,right,right,eat,eat,approach,neg,approach-neg,1,1,744.2999999998137
sub-043,298,3,TRUE,left,avoid,neg,fungus29_crop.jpg,4,30,TRUE,297,1,3005.7363,43,DON'T EAT                                    EAT,3004.9312,2986.7827,2788.7556,right,1,left,left,not_eat,not_eat,approach,neg,approach-neg,1,1,805.0999999996275
sub-043,299,3,FALSE,left,approach,neg,insect25_crop.jpg,4,30,TRUE,298,2,3007.6873,43,DON'T EAT                                    EAT,3006.9495,2986.7827,2788.7556,right,2,right,right,eat,eat,approach,neg,approach-neg,1,1,737.8000000002794
sub-043,300,3,FALSE,left,approach,neg,insect1_crop.jpg,4,30,TRUE,299,2,3009.669,43,DON'T EAT                                    EAT,3008.9673,2986.7827,2788.7556,right,2,right,right,eat,eat,approach,neg,approach-neg,1,1,701.7000000001863
sub-043,301,3,FALSE,left,avoid,pos,meat22_crop.jpg,4,31,TRUE,300,1,3028.1438,43,DON'T EAT                                    EAT,3027.3499,3023.3298,2788.7556,right,1,left,left,not_eat,not_eat,avoid,pos,avoid-pos,1,1,793.8999999994412
sub-043,302,3,FALSE,left,avoid,pos,meat33_crop.jpg,4,31,TRUE,301,1,3030.2134,43,DON'T EAT                                    EAT,3029.3682,3023.3298,2788.7556,right,1,left,left,not_eat,not_eat,avoid,pos,avoid-pos,1,1,845.2000000001863
sub-043,303,3,FALSE,left,avoid,pos,meat23_crop.jpg,4,31,TRUE,302,1,3032.0222,43,DON'T EAT                                    EAT,3031.3865,3023.3298,2788.7556,right,1,left,left,not_eat,not_eat,avoid,pos,avoid-pos,1,1,635.6999999997206
sub-043,304,3,TRUE,left,approach,neg,insect35_crop.jpg,4,31,TRUE,303,2,3034.2222,43,DON'T EAT                                    EAT,3033.4048,3023.3298,2788.7556,right,2,right,right,eat,eat,avoid,pos,avoid-pos,1,1,817.4000000003725
sub-043,305,3,FALSE,left,avoid,pos,meat20_crop.jpg,4,31,TRUE,304,1,3036.1313,43,DON'T EAT                                    EAT,3035.423,3023.3298,2788.7556,right,1,left,left,not_eat,not_eat,avoid,pos,avoid-pos,1,1,708.2999999998137
sub-043,306,3,FALSE,left,avoid,pos,meat9_crop.jpg,4,31,TRUE,305,1,3038.3857,43,DON'T EAT                                    EAT,3037.4412,3023.3298,2788.7556,right,1,left,left,not_eat,not_eat,avoid,pos,avoid-pos,1,1,944.4999999995343
sub-043,307,3,FALSE,left,avoid,pos,meat37_crop.jpg,4,31,TRUE,306,1,3040.1575,43,DON'T EAT                                    EAT,3039.4597,3023.3298,2788.7556,right,1,left,left,not_eat,not_eat,avoid,pos,avoid-pos,1,1,697.8000000002794
sub-043,308,3,FALSE,left,avoid,pos,meat28_crop.jpg,4,31,TRUE,307,1,3042.1548,43,DON'T EAT                                    EAT,3041.4783,3023.3298,2788.7556,right,1,left,left,not_eat,not_eat,avoid,pos,avoid-pos,1,1,676.4999999995343
sub-043,309,3,FALSE,left,avoid,pos,meat6_crop.jpg,4,31,TRUE,308,1,3044.1858,43,DON'T EAT                                    EAT,3043.4966,3023.3298,2788.7556,right,1,left,left,not_eat,not_eat,avoid,pos,avoid-pos,1,1,689.2000000001863
sub-043,310,3,TRUE,left,approach,pos,cake15_crop.jpg,4,31,TRUE,309,2,3046.274,43,DON'T EAT                                    EAT,3045.5146,3023.3298,2788.7556,right,2,right,right,eat,eat,avoid,pos,avoid-pos,1,1,759.3999999999069
sub-043,311,0,FALSE,left,approach,pos,cake28_crop.jpg,4,32,TRUE,310,2,3066.2314,43,DON'T EAT                                    EAT,3065.4814,3061.4614,2788.7556,right,2,right,right,eat,eat,approach,pos,approach-pos,1,1,750
sub-043,312,0,FALSE,left,approach,pos,cake29_crop.jpg,4,32,TRUE,311,2,3068.1467,43,DON'T EAT                                    EAT,3067.4993,3061.4614,2788.7556,right,2,right,right,eat,eat,approach,pos,approach-pos,1,1,647.3999999999069
sub-043,313,0,FALSE,left,approach,pos,cake23_crop.jpg,4,32,TRUE,312,2,3070.1667,43,DON'T EAT                                    EAT,3069.5176,3061.4614,2788.7556,right,2,right,right,eat,eat,approach,pos,approach-pos,1,1,649.1000000000931
sub-043,314,0,FALSE,left,approach,pos,cake18_crop.jpg,4,32,TRUE,313,2,3072.1628,43,DON'T EAT                                    EAT,3071.5366,3061.4614,2788.7556,right,2,right,right,eat,eat,approach,pos,approach-pos,1,1,626.2000000001863
sub-043,315,0,FALSE,left,approach,pos,cake21_crop.jpg,4,32,TRUE,314,2,3074.191,43,DON'T EAT                                    EAT,3073.555,3061.4614,2788.7556,right,2,right,right,eat,eat,approach,pos,approach-pos,1,1,636
sub-043,316,0,TRUE,left,avoid,neg,fungus17_crop.jpg,4,32,TRUE,315,1,3076.2817,43,DON'T EAT                                    EAT,3075.5732,3061.4614,2788.7556,right,1,left,left,not_eat,not_eat,approach,pos,approach-pos,1,1,708.5000000004657
sub-043,317,0,FALSE,left,approach,pos,cake13_crop.jpg,4,32,TRUE,316,2,3078.2266,43,DON'T EAT                                    EAT,3077.5913,3061.4614,2788.7556,right,2,right,right,eat,eat,approach,pos,approach-pos,1,1,635.3000000002794
sub-043,318,0,FALSE,left,approach,pos,cake31_crop.jpg,4,32,TRUE,317,2,3080.3499,43,DON'T EAT                                    EAT,3079.61,3061.4614,2788.7556,right,2,right,right,eat,eat,approach,pos,approach-pos,1,1,739.9000000003725
sub-043,319,0,FALSE,left,approach,pos,cake9_crop.jpg,4,32,TRUE,318,2,3082.284,43,DON'T EAT                                    EAT,3081.6282,3061.4614,2788.7556,right,2,right,right,eat,eat,approach,pos,approach-pos,1,1,655.7999999998137
sub-043,320,0,TRUE,left,avoid,pos,meat17_crop.jpg,4,32,TRUE,319,1,3084.3977,43,DON'T EAT                                    EAT,3083.6465,3061.4614,2788.7556,right,1,left,left,not_eat,not_eat,approach,pos,approach-pos,1,1,751.2000000001863
