subject,trial_number,n_block,catch,hand,mot,val,stim_name,run_number,num_block,ran,order,response,time_of_response,subject_number,left_side_resp_label,trial_onset,blk_instr_onset,baseline_onset,response_hand,response_cleaned,response_lat,response_lat_cleaned,response_meaning,response_meaning_cleaned,condition_mot,condition_val,condition,correct,correct_cleaned,rt
sub-040,1,3,TRUE,left,approach,pos,cake23_crop.jpg,1,1,TRUE,0,1,1886.2181,40,EAT                                    DON'T EAT,1884.9675,1880.9476,1867.5125,right,1,left,left,eat,eat,avoid,pos,avoid-pos,1,1,1250.6000000000931
sub-040,2,3,FALSE,left,avoid,pos,meat9_crop.jpg,1,1,TRUE,1,2,1888.577,40,EAT                                    DON'T EAT,1886.9858,1880.9476,1867.5125,right,2,right,right,not_eat,not_eat,avoid,pos,avoid-pos,1,1,1591.2000000001863
sub-040,3,3,FALSE,left,avoid,pos,meat39_crop.jpg,1,1,TRUE,2,2,1889.9612,40,EAT                                    DON'T EAT,1889.0042,1880.9476,1867.5125,right,2,right,right,not_eat,not_eat,avoid,pos,avoid-pos,1,1,956.9999999997672
sub-040,4,3,FALSE,left,avoid,pos,meat21_crop.jpg,1,1,TRUE,3,2,1891.7937,40,EAT                                    DON'T EAT,1891.0255,1880.9476,1867.5125,right,2,right,right,not_eat,not_eat,avoid,pos,avoid-pos,1,1,768.1999999999534
sub-040,5,3,FALSE,left,avoid,pos,meat25_crop.jpg,1,1,TRUE,4,2,1894.2838,40,EAT                                    DON'T EAT,1893.0431,1880.9476,1867.5125,right,2,right,right,not_eat,not_eat,avoid,pos,avoid-pos,1,1,1240.6999999997206
sub-040,6,3,FALSE,left,avoid,pos,meat37_crop.jpg,1,1,TRUE,5,2,1896.0721,40,EAT                                    DON'T EAT,1895.0592,1880.9476,1867.5125,right,2,right,right,not_eat,not_eat,avoid,pos,avoid-pos,1,1,1012.9000000001397
sub-040,7,3,TRUE,left,approach,neg,insect18_crop.jpg,1,1,TRUE,6,1,1897.8673,40,EAT                                    DON'T EAT,1897.0778,1880.9476,1867.5125,right,1,left,left,eat,eat,avoid,pos,avoid-pos,1,1,789.4999999997672
sub-040,8,3,FALSE,left,avoid,pos,meat35_crop.jpg,1,1,TRUE,7,2,1899.9401,40,EAT                                    DON'T EAT,1899.0958,1880.9476,1867.5125,right,2,right,right,not_eat,not_eat,avoid,pos,avoid-pos,1,1,844.3000000000466
sub-040,9,3,FALSE,left,avoid,pos,meat30_crop.jpg,1,1,TRUE,8,2,1902.0131,40,EAT                                    DON'T EAT,1901.1141,1880.9476,1867.5125,right,2,right,right,not_eat,not_eat,avoid,pos,avoid-pos,1,1,898.9999999997672
sub-040,10,3,FALSE,left,avoid,pos,meat29_crop.jpg,1,1,TRUE,9,2,1903.8125,40,EAT                                    DON'T EAT,1903.1327000000001,1880.9476,1867.5125,right,2,right,right,not_eat,not_eat,avoid,pos,avoid-pos,1,1,679.7999999998137
sub-040,11,1,FALSE,right,avoid,neg,fungus10_crop.jpg,1,2,TRUE,10,2,1922.9655,40,EAT                                    DON'T EAT,1921.5646,1917.5613,1867.5125,right,2,right,right,not_eat,not_eat,avoid,neg,avoid-neg,1,1,1400.9000000001397
sub-040,12,1,FALSE,right,avoid,neg,fungus20_crop.jpg,1,2,TRUE,11,2,1925.1172,40,EAT                                    DON'T EAT,1923.583,1917.5613,1867.5125,right,2,right,right,not_eat,not_eat,avoid,neg,avoid-neg,1,1,1534.1999999999534
sub-040,13,1,TRUE,right,approach,pos,cake36_crop.jpg,1,2,TRUE,12,1,1927.0763,40,EAT                                    DON'T EAT,1925.6013,1917.5613,1867.5125,right,1,left,left,eat,eat,avoid,neg,avoid-neg,1,1,1475
sub-040,14,1,FALSE,right,avoid,neg,fungus13_crop.jpg,1,2,TRUE,13,2,1928.9539,40,EAT                                    DON'T EAT,1927.6196,1917.5613,1867.5125,right,2,right,right,not_eat,not_eat,avoid,neg,avoid-neg,1,1,1334.2999999998137
sub-040,15,1,FALSE,right,avoid,neg,fungus3_crop.jpg,1,2,TRUE,14,2,1930.8569,40,EAT                                    DON'T EAT,1929.6381,1917.5613,1867.5125,right,2,right,right,not_eat,not_eat,avoid,neg,avoid-neg,1,1,1218.8000000000466
sub-040,16,1,FALSE,right,avoid,neg,fungus40_crop.jpg,1,2,TRUE,15,2,1932.8424,40,EAT                                    DON'T EAT,1931.6564,1917.5613,1867.5125,right,2,right,right,not_eat,not_eat,avoid,neg,avoid-neg,1,1,1185.9999999997672
sub-040,17,1,FALSE,right,avoid,neg,fungus7_crop.jpg,1,2,TRUE,16,2,1935.2938,40,EAT                                    DON'T EAT,1933.6747,1917.5613,1867.5125,right,2,right,right,not_eat,not_eat,avoid,neg,avoid-neg,1,1,1619.0999999998603
sub-040,18,1,FALSE,right,avoid,neg,fungus15_crop.jpg,1,2,TRUE,17,2,1936.7311,40,EAT                                    DON'T EAT,1935.6931,1917.5613,1867.5125,right,2,right,right,not_eat,not_eat,avoid,neg,avoid-neg,1,1,1038
sub-040,19,1,FALSE,right,avoid,neg,fungus31_crop.jpg,1,2,TRUE,18,2,1938.4984,40,EAT                                    DON'T EAT,1937.7114,1917.5613,1867.5125,right,2,right,right,not_eat,not_eat,avoid,neg,avoid-neg,1,1,787
sub-040,20,1,TRUE,right,approach,neg,insect10_crop.jpg,1,2,TRUE,19,1,1940.7181,40,EAT                                    DON'T EAT,1939.7297,1917.5613,1867.5125,right,1,left,left,eat,eat,avoid,neg,avoid-neg,1,1,988.3999999999069
sub-040,21,2,FALSE,right,avoid,neg,fungus5_crop.jpg,1,3,TRUE,20,2,1957.8531,40,EAT                                    DON'T EAT,1956.8438,1952.8406,1867.5125,right,2,right,right,not_eat,not_eat,avoid,neg,avoid-neg,1,1,1009.3000000000466
sub-040,22,2,FALSE,right,avoid,neg,fungus12_crop.jpg,1,3,TRUE,21,2,1959.685,40,EAT                                    DON'T EAT,1958.8622,1952.8406,1867.5125,right,2,right,right,not_eat,not_eat,avoid,neg,avoid-neg,1,1,822.8000000000466
sub-040,23,2,FALSE,right,avoid,neg,fungus14_crop.jpg,1,3,TRUE,22,2,1961.9117,40,EAT                                    DON'T EAT,1960.8805,1952.8406,1867.5125,right,2,right,right,not_eat,not_eat,avoid,neg,avoid-neg,1,1,1031.2000000001863
sub-040,24,2,FALSE,right,avoid,neg,fungus1_crop.jpg,1,3,TRUE,23,2,1963.5022,40,EAT                                    DON'T EAT,1962.8989,1952.8406,1867.5125,right,2,right,right,not_eat,not_eat,avoid,neg,avoid-neg,1,1,603.3000000000466
sub-040,25,2,FALSE,right,avoid,neg,fungus36_crop.jpg,1,3,TRUE,24,2,1965.8492,40,EAT                                    DON'T EAT,1964.9172,1952.8406,1867.5125,right,2,right,right,not_eat,not_eat,avoid,neg,avoid-neg,1,1,932
sub-040,26,2,TRUE,right,approach,neg,insect27_crop.jpg,1,3,TRUE,25,1,1968.1293,40,EAT                                    DON'T EAT,1966.9357,1952.8406,1867.5125,right,1,left,left,eat,eat,avoid,neg,avoid-neg,1,1,1193.6000000000931
sub-040,27,2,FALSE,right,avoid,neg,fungus38_crop.jpg,1,3,TRUE,26,2,1969.9719,40,EAT                                    DON'T EAT,1968.954,1952.8406,1867.5125,right,2,right,right,not_eat,not_eat,avoid,neg,avoid-neg,1,1,1017.8999999999069
sub-040,28,2,FALSE,right,avoid,neg,fungus2_crop.jpg,1,3,TRUE,27,2,1971.8435,40,EAT                                    DON'T EAT,1970.9723,1952.8406,1867.5125,right,2,right,right,not_eat,not_eat,avoid,neg,avoid-neg,1,1,871.2000000001863
sub-040,29,2,TRUE,right,approach,pos,cake5_crop.jpg,1,3,TRUE,28,1,1974.0287,40,EAT                                    DON'T EAT,1972.9907,1952.8406,1867.5125,right,1,left,left,eat,eat,avoid,neg,avoid-neg,1,1,1038.0000000002328
sub-040,30,2,FALSE,right,avoid,neg,fungus4_crop.jpg,1,3,TRUE,29,2,1975.905,40,EAT                                    DON'T EAT,1975.009,1952.8406,1867.5125,right,2,right,right,not_eat,not_eat,avoid,neg,avoid-neg,1,1,896
sub-040,31,0,FALSE,left,approach,pos,cake16_crop.jpg,1,4,TRUE,30,1,1994.9088,40,EAT                                    DON'T EAT,1993.8745,1989.8547,1867.5125,right,1,left,left,eat,eat,approach,pos,approach-pos,1,1,1034.2999999998137
sub-040,32,0,FALSE,left,approach,pos,cake25_crop.jpg,1,4,TRUE,31,1,1996.6215,40,EAT                                    DON'T EAT,1995.893,1989.8547,1867.5125,right,1,left,left,eat,eat,approach,pos,approach-pos,1,1,728.5
sub-040,33,0,FALSE,left,approach,pos,cake26_crop.jpg,1,4,TRUE,32,1,1998.5146,40,EAT                                    DON'T EAT,1997.9113,1989.8547,1867.5125,right,1,left,left,eat,eat,approach,pos,approach-pos,1,1,603.2999999998137
sub-040,34,0,FALSE,left,approach,pos,cake35_crop.jpg,1,4,TRUE,33,1,2000.5209,40,EAT                                    DON'T EAT,1999.9297,1989.8547,1867.5125,right,1,left,left,eat,eat,approach,pos,approach-pos,1,1,591.1999999999534
sub-040,35,0,FALSE,left,approach,pos,cake4_crop.jpg,1,4,TRUE,34,1,2002.6814,40,EAT                                    DON'T EAT,2001.948,1989.8547,1867.5125,right,1,left,left,eat,eat,approach,pos,approach-pos,1,1,733.3999999999069
sub-040,36,0,TRUE,left,avoid,pos,meat27_crop.jpg,1,4,TRUE,35,2,2004.9965,40,EAT                                    DON'T EAT,2003.9664,1989.8547,1867.5125,right,2,right,right,not_eat,not_eat,approach,pos,approach-pos,1,1,1030.1000000000931
sub-040,37,0,TRUE,left,avoid,neg,fungus18_crop.jpg,1,4,TRUE,36,2,2007.2142,40,EAT                                    DON'T EAT,2005.9847,1989.8547,1867.5125,right,2,right,right,not_eat,not_eat,approach,pos,approach-pos,1,1,1229.5
sub-040,38,0,FALSE,left,approach,pos,cake33_crop.jpg,1,4,TRUE,37,1,2009.1698,40,EAT                                    DON'T EAT,2008.003,1989.8547,1867.5125,right,1,left,left,eat,eat,approach,pos,approach-pos,1,1,1166.7999999998137
sub-040,39,0,FALSE,left,approach,pos,cake40_crop.jpg,1,4,TRUE,38,1,2010.7047,40,EAT                                    DON'T EAT,2010.0215,1989.8547,1867.5125,right,1,left,left,eat,eat,approach,pos,approach-pos,1,1,683.1999999999534
sub-040,40,0,FALSE,left,approach,pos,cake8_crop.jpg,1,4,TRUE,39,1,2012.7839,40,EAT                                    DON'T EAT,2012.0398,1989.8547,1867.5125,right,1,left,left,eat,eat,approach,pos,approach-pos,1,1,744.0999999998603
sub-040,41,3,FALSE,right,approach,pos,cake28_crop.jpg,1,5,TRUE,40,1,2029.4824,40,EAT                                    DON'T EAT,2028.42,2024.4001,1867.5125,right,1,left,left,eat,eat,approach,pos,approach-pos,1,1,1062.4000000001397
sub-040,42,3,FALSE,right,approach,pos,cake14_crop.jpg,1,5,TRUE,41,1,2031.1155,40,EAT                                    DON'T EAT,2030.4384,2024.4001,1867.5125,right,1,left,left,eat,eat,approach,pos,approach-pos,1,1,677.1000000000931
sub-040,43,3,FALSE,right,approach,pos,cake20_crop.jpg,1,5,TRUE,42,1,2033.1442,40,EAT                                    DON'T EAT,2032.4568,2024.4001,1867.5125,right,1,left,left,eat,eat,approach,pos,approach-pos,1,1,687.4000000001397
sub-040,44,3,FALSE,right,approach,pos,cake38_crop.jpg,1,5,TRUE,43,1,2035.1733,40,EAT                                    DON'T EAT,2034.4751,2024.4001,1867.5125,right,1,left,left,eat,eat,approach,pos,approach-pos,1,1,698.1999999997206
sub-040,45,3,TRUE,right,avoid,neg,fungus11_crop.jpg,1,5,TRUE,44,2,2037.8092,40,EAT                                    DON'T EAT,2036.4934,2024.4001,1867.5125,right,2,right,right,not_eat,not_eat,approach,pos,approach-pos,1,1,1315.7999999998137
sub-040,46,3,FALSE,right,approach,pos,cake40_crop.jpg,1,5,TRUE,45,1,2039.3855,40,EAT                                    DON'T EAT,2038.5117,2024.4001,1867.5125,right,1,left,left,eat,eat,approach,pos,approach-pos,1,1,873.8000000000466
sub-040,47,3,FALSE,right,approach,pos,cake24_crop.jpg,1,5,TRUE,46,1,2041.1539,40,EAT                                    DON'T EAT,2040.5302,2024.4001,1867.5125,right,1,left,left,eat,eat,approach,pos,approach-pos,1,1,623.6999999999534
sub-040,48,3,TRUE,right,avoid,pos,meat10_crop.jpg,1,5,TRUE,47,2,2043.521,40,EAT                                    DON'T EAT,2042.5485,2024.4001,1867.5125,right,2,right,right,not_eat,not_eat,approach,pos,approach-pos,1,1,972.5
sub-040,49,3,FALSE,right,approach,pos,cake9_crop.jpg,1,5,TRUE,48,1,2045.6067,40,EAT                                    DON'T EAT,2044.5668,2024.4001,1867.5125,right,1,left,left,eat,eat,approach,pos,approach-pos,1,1,1039.8999999999069
sub-040,50,3,FALSE,right,approach,pos,cake21_crop.jpg,1,5,TRUE,49,1,2047.5316,40,EAT                                    DON'T EAT,2046.5852,2024.4001,1867.5125,right,1,left,left,eat,eat,approach,pos,approach-pos,1,1,946.4000000001397
sub-040,51,1,TRUE,left,avoid,pos,meat26_crop.jpg,1,6,TRUE,50,2,2067.743,40,EAT                                    DON'T EAT,2066.635,2062.615,1867.5125,right,2,right,right,not_eat,not_eat,approach,pos,approach-pos,1,1,1107.9999999997672
sub-040,52,1,FALSE,left,approach,pos,cake38_crop.jpg,1,6,TRUE,51,1,2069.4287,40,EAT                                    DON'T EAT,2068.6533,2062.615,1867.5125,right,1,left,left,eat,eat,approach,pos,approach-pos,1,1,775.3999999999069
sub-040,53,1,FALSE,left,approach,pos,cake6_crop.jpg,1,6,TRUE,52,1,2071.3726,40,EAT                                    DON'T EAT,2070.6719,2062.615,1867.5125,right,1,left,left,eat,eat,approach,pos,approach-pos,1,1,700.7000000001863
sub-040,54,1,FALSE,left,approach,pos,cake18_crop.jpg,1,6,TRUE,53,1,2073.317,40,EAT                                    DON'T EAT,2072.6902,2062.615,1867.5125,right,1,left,left,eat,eat,approach,pos,approach-pos,1,1,626.8000000000466
sub-040,55,1,FALSE,left,approach,pos,cake14_crop.jpg,1,6,TRUE,54,1,2075.328,40,EAT                                    DON'T EAT,2074.7085,2062.615,1867.5125,right,1,left,left,eat,eat,approach,pos,approach-pos,1,1,619.4999999997672
sub-040,56,1,TRUE,left,avoid,neg,fungus33_crop.jpg,1,6,TRUE,55,2,2077.754,40,EAT                                    DON'T EAT,2076.7268,2062.615,1867.5125,right,2,right,right,not_eat,not_eat,approach,pos,approach-pos,1,1,1027.2000000001863
sub-040,57,1,FALSE,left,approach,pos,cake7_crop.jpg,1,6,TRUE,56,1,2079.491,40,EAT                                    DON'T EAT,2078.745,2062.615,1867.5125,right,1,left,left,eat,eat,approach,pos,approach-pos,1,1,746
sub-040,58,1,FALSE,left,approach,pos,cake17_crop.jpg,1,6,TRUE,57,1,2081.4185,40,EAT                                    DON'T EAT,2080.7634,2062.615,1867.5125,right,1,left,left,eat,eat,approach,pos,approach-pos,1,1,655.100000000326
sub-040,59,1,FALSE,left,approach,pos,cake2_crop.jpg,1,6,TRUE,58,1,2083.3389,40,EAT                                    DON'T EAT,2082.782,2062.615,1867.5125,right,1,left,left,eat,eat,approach,pos,approach-pos,1,1,556.8999999999069
sub-040,60,1,FALSE,left,approach,pos,cake24_crop.jpg,1,6,TRUE,59,1,2085.307,40,EAT                                    DON'T EAT,2084.8003,2062.615,1867.5125,right,1,left,left,eat,eat,approach,pos,approach-pos,1,1,506.69999999995343
sub-040,61,2,FALSE,right,approach,pos,cake7_crop.jpg,1,7,TRUE,60,1,2105.4268,40,EAT                                    DON'T EAT,2104.6667,2100.6467,1867.5125,right,1,left,left,eat,eat,approach,pos,approach-pos,1,1,760.1000000000931
sub-040,62,2,TRUE,right,avoid,neg,fungus24_crop.jpg,1,7,TRUE,61,2,2107.599,40,EAT                                    DON'T EAT,2106.685,2100.6467,1867.5125,right,2,right,right,not_eat,not_eat,approach,pos,approach-pos,1,1,914
sub-040,63,2,FALSE,right,approach,pos,cake31_crop.jpg,1,7,TRUE,62,1,2109.4478,40,EAT                                    DON'T EAT,2108.7034,2100.6467,1867.5125,right,1,left,left,eat,eat,approach,pos,approach-pos,1,1,744.3999999999069
sub-040,64,2,TRUE,right,avoid,pos,meat9_crop.jpg,1,7,TRUE,63,2,2111.7483,40,EAT                                    DON'T EAT,2110.7217,2100.6467,1867.5125,right,2,right,right,not_eat,not_eat,approach,pos,approach-pos,1,1,1026.6000000000931
sub-040,65,2,FALSE,right,approach,pos,cake15_crop.jpg,1,7,TRUE,64,1,2113.598,40,EAT                                    DON'T EAT,2112.74,2100.6467,1867.5125,right,1,left,left,eat,eat,approach,pos,approach-pos,1,1,858
sub-040,66,2,FALSE,right,approach,pos,cake11_crop.jpg,1,7,TRUE,65,1,2115.5916,40,EAT                                    DON'T EAT,2114.7583,2100.6467,1867.5125,right,1,left,left,eat,eat,approach,pos,approach-pos,1,1,833.3000000002794
sub-040,67,2,FALSE,right,approach,pos,cake16_crop.jpg,1,7,TRUE,66,1,2117.3037,40,EAT                                    DON'T EAT,2116.7766,2100.6467,1867.5125,right,1,left,left,eat,eat,approach,pos,approach-pos,1,1,527.0999999996275
sub-040,68,2,FALSE,right,approach,pos,cake18_crop.jpg,1,7,TRUE,67,1,2119.3545,40,EAT                                    DON'T EAT,2118.7952,2100.6467,1867.5125,right,1,left,left,eat,eat,approach,pos,approach-pos,1,1,559.2999999998137
sub-040,69,2,FALSE,right,approach,pos,cake39_crop.jpg,1,7,TRUE,68,1,2121.427,40,EAT                                    DON'T EAT,2120.8135,2100.6467,1867.5125,right,1,left,left,eat,eat,approach,pos,approach-pos,1,1,613.5
sub-040,70,2,FALSE,right,approach,pos,cake10_crop.jpg,1,7,TRUE,69,1,2123.8523,40,EAT                                    DON'T EAT,2122.8318,2100.6467,1867.5125,right,1,left,left,eat,eat,approach,pos,approach-pos,1,1,1020.5
sub-040,71,3,FALSE,right,approach,neg,insect28_crop.jpg,1,8,TRUE,70,1,2141.8599,40,EAT                                    DON'T EAT,2140.7966,2136.7766,1867.5125,right,1,left,left,eat,eat,approach,neg,approach-neg,1,1,1063.2999999998137
sub-040,72,3,FALSE,right,approach,neg,insect9_crop.jpg,1,8,TRUE,71,1,2143.3884,40,EAT                                    DON'T EAT,2142.8152,2136.7766,1867.5125,right,1,left,left,eat,eat,approach,neg,approach-neg,1,1,573.1999999997206
sub-040,73,3,FALSE,right,approach,neg,insect16_crop.jpg,1,8,TRUE,72,1,2145.3975,40,EAT                                    DON'T EAT,2144.8335,2136.7766,1867.5125,right,1,left,left,eat,eat,approach,neg,approach-neg,1,1,564
sub-040,74,3,FALSE,right,approach,neg,insect26_crop.jpg,1,8,TRUE,73,1,2147.4973,40,EAT                                    DON'T EAT,2146.8518,2136.7766,1867.5125,right,1,left,left,eat,eat,approach,neg,approach-neg,1,1,645.5
sub-040,75,3,FALSE,right,approach,neg,insect11_crop.jpg,1,8,TRUE,74,1,2149.4321,40,EAT                                    DON'T EAT,2148.87,2136.7766,1867.5125,right,1,left,left,eat,eat,approach,neg,approach-neg,1,1,562.1000000000931
sub-040,76,3,FALSE,right,approach,neg,insect40_crop.jpg,1,8,TRUE,75,1,2151.5015,40,EAT                                    DON'T EAT,2150.8884,2136.7766,1867.5125,right,1,left,left,eat,eat,approach,neg,approach-neg,1,1,613.1000000000931
sub-040,77,3,TRUE,right,avoid,neg,fungus35_crop.jpg,1,8,TRUE,76,2,2153.8396,40,EAT                                    DON'T EAT,2152.9067,2136.7766,1867.5125,right,2,right,right,not_eat,not_eat,approach,neg,approach-neg,1,1,932.8999999994412
sub-040,78,3,FALSE,right,approach,neg,insect29_crop.jpg,1,8,TRUE,77,1,2155.5757,40,EAT                                    DON'T EAT,2154.9248,2136.7766,1867.5125,right,1,left,left,eat,eat,approach,neg,approach-neg,1,1,650.8999999999069
sub-040,79,3,FALSE,right,approach,neg,insect23_crop.jpg,1,8,TRUE,78,1,2157.4358,40,EAT                                    DON'T EAT,2156.9434,2136.7766,1867.5125,right,1,left,left,eat,eat,approach,neg,approach-neg,1,1,492.40000000037253
sub-040,80,3,TRUE,right,avoid,pos,meat34_crop.jpg,1,8,TRUE,79,2,2160.836,40,EAT                                    DON'T EAT,2158.9617,2136.7766,1867.5125,right,2,right,right,not_eat,not_eat,approach,neg,approach-neg,1,1,1874.3000000002794
sub-040,81,2,FALSE,right,avoid,pos,meat4_crop.jpg,2,9,TRUE,80,2,2262.5012,40,EAT                                    DON'T EAT,2261.3135,2257.2935,2245.1685,left,2,right,right,not_eat,not_eat,avoid,pos,avoid-pos,1,1,1187.7000000001863
sub-040,82,2,FALSE,right,avoid,pos,meat11_crop.jpg,2,9,TRUE,81,2,2264.1416,40,EAT                                    DON'T EAT,2263.3318,2257.2935,2245.1685,left,2,right,right,not_eat,not_eat,avoid,pos,avoid-pos,1,1,809.8000000002794
sub-040,83,2,TRUE,right,approach,neg,insect17_crop.jpg,2,9,TRUE,82,1,2266.0603,40,EAT                                    DON'T EAT,2265.35,2257.2935,2245.1685,left,1,left,left,eat,eat,avoid,pos,avoid-pos,1,1,710.3000000002794
sub-040,84,2,FALSE,right,avoid,pos,meat17_crop.jpg,2,9,TRUE,83,2,2268.1665,40,EAT                                    DON'T EAT,2267.3684,2257.2935,2245.1685,left,2,right,right,not_eat,not_eat,avoid,pos,avoid-pos,1,1,798.1000000000931
sub-040,85,2,TRUE,right,approach,pos,cake26_crop.jpg,2,9,TRUE,84,1,2270.0889,40,EAT                                    DON'T EAT,2269.387,2257.2935,2245.1685,left,1,left,left,eat,eat,avoid,pos,avoid-pos,1,1,701.9000000003725
sub-040,86,2,FALSE,right,avoid,pos,meat28_crop.jpg,2,9,TRUE,85,2,2272.2354,40,EAT                                    DON'T EAT,2271.4053,2257.2935,2245.1685,left,2,right,right,not_eat,not_eat,avoid,pos,avoid-pos,1,1,830.1000000000931
sub-040,87,2,FALSE,right,avoid,pos,meat36_crop.jpg,2,9,TRUE,86,2,2274.2014,40,EAT                                    DON'T EAT,2273.4236,2257.2935,2245.1685,left,2,right,right,not_eat,not_eat,avoid,pos,avoid-pos,1,1,777.7999999998137
sub-040,88,2,FALSE,right,avoid,pos,meat13_crop.jpg,2,9,TRUE,87,2,2276.2202,40,EAT                                    DON'T EAT,2275.442,2257.2935,2245.1685,left,2,right,right,not_eat,not_eat,avoid,pos,avoid-pos,1,1,778.2000000001863
sub-040,89,2,FALSE,right,avoid,pos,meat16_crop.jpg,2,9,TRUE,88,2,2278.2065,40,EAT                                    DON'T EAT,2277.4602,2257.2935,2245.1685,left,2,right,right,not_eat,not_eat,avoid,pos,avoid-pos,1,1,746.2999999998137
sub-040,90,2,FALSE,right,avoid,pos,meat18_crop.jpg,2,9,TRUE,89,2,2280.2686,40,EAT                                    DON'T EAT,2279.4785,2257.2935,2245.1685,left,2,right,right,not_eat,not_eat,avoid,pos,avoid-pos,1,1,790.1000000000931
sub-040,91,1,FALSE,right,approach,neg,insect30_crop.jpg,2,10,TRUE,90,1,2297.7756,40,EAT                                    DON'T EAT,2296.8765,2292.8564,2245.1685,left,1,left,left,eat,eat,approach,neg,approach-neg,1,1,899.1000000000931
sub-040,92,1,FALSE,right,approach,neg,insect7_crop.jpg,2,10,TRUE,91,1,2299.5847,40,EAT                                    DON'T EAT,2298.8948,2292.8564,2245.1685,left,1,left,left,eat,eat,approach,neg,approach-neg,1,1,689.8999999999069
sub-040,93,1,TRUE,right,avoid,neg,fungus16_crop.jpg,2,10,TRUE,92,2,2302.086,40,EAT                                    DON'T EAT,2300.913,2292.8564,2245.1685,left,2,right,right,not_eat,not_eat,approach,neg,approach-neg,1,1,1173
sub-040,94,1,FALSE,right,approach,neg,insect24_crop.jpg,2,10,TRUE,93,1,2303.6858,40,EAT                                    DON'T EAT,2302.9314,2292.8564,2245.1685,left,1,left,left,eat,eat,approach,neg,approach-neg,1,1,754.4000000003725
sub-040,95,1,FALSE,right,approach,neg,insect20_crop.jpg,2,10,TRUE,94,1,2305.6794,40,EAT                                    DON'T EAT,2304.9497,2292.8564,2245.1685,left,1,left,left,eat,eat,approach,neg,approach-neg,1,1,729.6999999997206
sub-040,96,1,FALSE,right,approach,neg,insect25_crop.jpg,2,10,TRUE,95,1,2307.5269,40,EAT                                    DON'T EAT,2306.968,2292.8564,2245.1685,left,1,left,left,eat,eat,approach,neg,approach-neg,1,1,558.8999999999069
sub-040,97,1,TRUE,right,avoid,pos,meat20_crop.jpg,2,10,TRUE,96,2,2309.9438,40,EAT                                    DON'T EAT,2308.9863,2292.8564,2245.1685,left,2,right,right,not_eat,not_eat,approach,neg,approach-neg,1,1,957.5
sub-040,98,1,FALSE,right,approach,neg,insect14_crop.jpg,2,10,TRUE,97,1,2311.8105,40,EAT                                    DON'T EAT,2311.005,2292.8564,2245.1685,left,1,left,left,eat,eat,approach,neg,approach-neg,1,1,805.5
sub-040,99,1,FALSE,right,approach,neg,insect13_crop.jpg,2,10,TRUE,98,1,2313.5833,40,EAT                                    DON'T EAT,2313.0232,2292.8564,2245.1685,left,1,left,left,eat,eat,approach,neg,approach-neg,1,1,560.0999999996275
sub-040,100,1,FALSE,right,approach,neg,insect31_crop.jpg,2,10,TRUE,99,1,2315.6016,40,EAT                                    DON'T EAT,2315.0415,2292.8564,2245.1685,left,1,left,left,eat,eat,approach,neg,approach-neg,1,1,560.1000000000931
sub-040,101,0,FALSE,right,avoid,pos,meat14_crop.jpg,2,11,TRUE,100,2,2333.0388,40,EAT                                    DON'T EAT,2332.0056,2327.9856,2245.1685,left,2,right,right,not_eat,not_eat,avoid,pos,avoid-pos,1,1,1033.1999999997206
sub-040,102,0,FALSE,right,avoid,pos,meat35_crop.jpg,2,11,TRUE,101,2,2334.6936,40,EAT                                    DON'T EAT,2334.024,2327.9856,2245.1685,left,2,right,right,not_eat,not_eat,avoid,pos,avoid-pos,1,1,669.6000000000931
sub-040,103,0,FALSE,right,avoid,pos,meat33_crop.jpg,2,11,TRUE,102,2,2336.9297,40,EAT                                    DON'T EAT,2336.0422,2327.9856,2245.1685,left,2,right,right,not_eat,not_eat,avoid,pos,avoid-pos,1,1,887.5000000004657
sub-040,104,0,FALSE,right,avoid,pos,meat39_crop.jpg,2,11,TRUE,103,2,2338.6948,40,EAT                                    DON'T EAT,2338.0605,2327.9856,2245.1685,left,2,right,right,not_eat,not_eat,avoid,pos,avoid-pos,1,1,634.3000000002794
sub-040,105,0,TRUE,right,approach,neg,insect21_crop.jpg,2,11,TRUE,104,1,2340.7961,40,EAT                                    DON'T EAT,2340.0789,2327.9856,2245.1685,left,1,left,left,eat,eat,avoid,pos,avoid-pos,1,1,717.2000000001863
sub-040,106,0,TRUE,right,approach,pos,cake37_crop.jpg,2,11,TRUE,105,1,2342.9446,40,EAT                                    DON'T EAT,2342.0974,2327.9856,2245.1685,left,1,left,left,eat,eat,avoid,pos,avoid-pos,1,1,847.1999999997206
sub-040,107,0,FALSE,right,avoid,pos,meat3_crop.jpg,2,11,TRUE,106,2,2344.9358,40,EAT                                    DON'T EAT,2344.1155,2327.9856,2245.1685,left,2,right,right,not_eat,not_eat,avoid,pos,avoid-pos,1,1,820.3000000002794
sub-040,108,0,FALSE,right,avoid,pos,meat1_crop.jpg,2,11,TRUE,107,2,2347.064,40,EAT                                    DON'T EAT,2346.134,2327.9856,2245.1685,left,2,right,right,not_eat,not_eat,avoid,pos,avoid-pos,1,1,930
sub-040,109,0,FALSE,right,avoid,pos,meat7_crop.jpg,2,11,TRUE,108,2,2348.8088,40,EAT                                    DON'T EAT,2348.1523,2327.9856,2245.1685,left,2,right,right,not_eat,not_eat,avoid,pos,avoid-pos,1,1,656.4999999995343
sub-040,110,0,FALSE,right,avoid,pos,meat15_crop.jpg,2,11,TRUE,109,2,2350.8481,40,EAT                                    DON'T EAT,2350.1707,2327.9856,2245.1685,left,2,right,right,not_eat,not_eat,avoid,pos,avoid-pos,1,1,677.3999999999069
sub-040,111,1,FALSE,right,approach,pos,cake6_crop.jpg,2,12,TRUE,110,1,2370.148,40,EAT                                    DON'T EAT,2369.1865,2365.1665,2245.1685,left,1,left,left,eat,eat,approach,pos,approach-pos,1,1,961.5
sub-040,112,1,FALSE,right,approach,pos,cake27_crop.jpg,2,12,TRUE,111,1,2371.8145,40,EAT                                    DON'T EAT,2371.2048,2365.1665,2245.1685,left,1,left,left,eat,eat,approach,pos,approach-pos,1,1,609.7000000001863
sub-040,113,1,FALSE,right,approach,pos,cake12_crop.jpg,2,12,TRUE,112,1,2373.7915,40,EAT                                    DON'T EAT,2373.2231,2365.1665,2245.1685,left,1,left,left,eat,eat,approach,pos,approach-pos,1,1,568.3999999999069
sub-040,114,1,FALSE,right,approach,pos,cake25_crop.jpg,2,12,TRUE,113,1,2375.8142,40,EAT                                    DON'T EAT,2375.2415,2365.1665,2245.1685,left,1,left,left,eat,eat,approach,pos,approach-pos,1,1,572.6999999997206
sub-040,115,1,TRUE,right,avoid,neg,fungus6_crop.jpg,2,12,TRUE,114,2,2378.1975,40,EAT                                    DON'T EAT,2377.2598,2365.1665,2245.1685,left,2,right,right,not_eat,not_eat,approach,pos,approach-pos,1,1,937.7000000001863
sub-040,116,1,FALSE,right,approach,pos,cake23_crop.jpg,2,12,TRUE,115,1,2380.199,40,EAT                                    DON'T EAT,2379.278,2365.1665,2245.1685,left,1,left,left,eat,eat,approach,pos,approach-pos,1,1,921
sub-040,117,1,FALSE,right,approach,pos,cake29_crop.jpg,2,12,TRUE,116,1,2381.9766,40,EAT                                    DON'T EAT,2381.2964,2365.1665,2245.1685,left,1,left,left,eat,eat,approach,pos,approach-pos,1,1,680.1999999997206
sub-040,118,1,FALSE,right,approach,pos,cake33_crop.jpg,2,12,TRUE,117,1,2383.9504,40,EAT                                    DON'T EAT,2383.3147,2365.1665,2245.1685,left,1,left,left,eat,eat,approach,pos,approach-pos,1,1,635.7000000006519
sub-040,119,1,TRUE,right,avoid,pos,meat32_crop.jpg,2,12,TRUE,118,2,2386.2656,40,EAT                                    DON'T EAT,2385.3333,2365.1665,2245.1685,left,2,right,right,not_eat,not_eat,approach,pos,approach-pos,1,1,932.3000000002794
sub-040,120,1,FALSE,right,approach,pos,cake35_crop.jpg,2,12,TRUE,119,1,2388.141,40,EAT                                    DON'T EAT,2387.3516,2365.1665,2245.1685,left,1,left,left,eat,eat,approach,pos,approach-pos,1,1,789.3999999999069
sub-040,121,2,FALSE,left,avoid,neg,fungus2_crop.jpg,2,13,TRUE,120,2,2405.431,40,EAT                                    DON'T EAT,2404.4492,2400.429,2245.1685,left,2,right,right,not_eat,not_eat,avoid,neg,avoid-neg,1,1,981.7999999998137
sub-040,122,2,TRUE,left,approach,neg,insect2_crop.jpg,2,13,TRUE,121,1,2407.4053,40,EAT                                    DON'T EAT,2406.4673,2400.429,2245.1685,left,1,left,left,eat,eat,avoid,neg,avoid-neg,1,1,938
sub-040,123,2,FALSE,left,avoid,neg,fungus29_crop.jpg,2,13,TRUE,122,2,2409.4668,40,EAT                                    DON'T EAT,2408.4858,2400.429,2245.1685,left,2,right,right,not_eat,not_eat,avoid,neg,avoid-neg,1,1,981.0000000004657
sub-040,124,2,FALSE,left,avoid,neg,fungus5_crop.jpg,2,13,TRUE,123,2,2411.3103,40,EAT                                    DON'T EAT,2410.5042,2400.429,2245.1685,left,2,right,right,not_eat,not_eat,avoid,neg,avoid-neg,1,1,806.1000000005588
sub-040,125,2,FALSE,left,avoid,neg,fungus1_crop.jpg,2,13,TRUE,124,2,2413.127,40,EAT                                    DON'T EAT,2412.5225,2400.429,2245.1685,left,2,right,right,not_eat,not_eat,avoid,neg,avoid-neg,1,1,604.5
sub-040,126,2,TRUE,left,approach,pos,cake39_crop.jpg,2,13,TRUE,125,1,2415.2534,40,EAT                                    DON'T EAT,2414.5408,2400.429,2245.1685,left,1,left,left,eat,eat,avoid,neg,avoid-neg,1,1,712.5999999996275
sub-040,127,2,FALSE,left,avoid,neg,fungus11_crop.jpg,2,13,TRUE,126,2,2417.4119,40,EAT                                    DON'T EAT,2416.559,2400.429,2245.1685,left,2,right,right,not_eat,not_eat,avoid,neg,avoid-neg,1,1,852.8999999999069
sub-040,128,2,FALSE,left,avoid,neg,fungus30_crop.jpg,2,13,TRUE,127,2,2419.4915,40,EAT                                    DON'T EAT,2418.5774,2400.429,2245.1685,left,2,right,right,not_eat,not_eat,avoid,neg,avoid-neg,1,1,914.1000000000931
sub-040,129,2,FALSE,left,avoid,neg,fungus8_crop.jpg,2,13,TRUE,128,2,2421.574,40,EAT                                    DON'T EAT,2420.596,2400.429,2245.1685,left,2,right,right,not_eat,not_eat,avoid,neg,avoid-neg,1,1,978
sub-040,130,2,FALSE,left,avoid,neg,fungus12_crop.jpg,2,13,TRUE,129,2,2423.4392,40,EAT                                    DON'T EAT,2422.614,2400.429,2245.1685,left,2,right,right,not_eat,not_eat,avoid,neg,avoid-neg,1,1,825.1999999997206
sub-040,131,0,TRUE,left,avoid,pos,meat11_crop.jpg,2,14,TRUE,130,2,2440.1147,40,EAT                                    DON'T EAT,2439.1277,2435.108,2245.1685,left,2,right,right,not_eat,not_eat,approach,neg,approach-neg,1,1,987
sub-040,132,0,FALSE,left,approach,neg,insect40_crop.jpg,2,14,TRUE,131,1,2442.002,40,EAT                                    DON'T EAT,2441.146,2435.108,2245.1685,left,1,left,left,eat,eat,approach,neg,approach-neg,1,1,856
sub-040,133,0,FALSE,left,approach,neg,insect20_crop.jpg,2,14,TRUE,132,1,2443.7788,40,EAT                                    DON'T EAT,2443.1646,2435.108,2245.1685,left,1,left,left,eat,eat,approach,neg,approach-neg,1,1,614.1999999997206
sub-040,134,0,FALSE,left,approach,neg,insect27_crop.jpg,2,14,TRUE,133,1,2445.819,40,EAT                                    DON'T EAT,2445.1829,2435.108,2245.1685,left,1,left,left,eat,eat,approach,neg,approach-neg,1,1,636.1000000000931
sub-040,135,0,FALSE,left,approach,neg,insect32_crop.jpg,2,14,TRUE,134,1,2447.7388,40,EAT                                    DON'T EAT,2447.2012,2435.108,2245.1685,left,1,left,left,eat,eat,approach,neg,approach-neg,1,1,537.6000000000931
sub-040,136,0,FALSE,left,approach,neg,insect33_crop.jpg,2,14,TRUE,135,1,2449.7244,40,EAT                                    DON'T EAT,2449.2195,2435.108,2245.1685,left,1,left,left,eat,eat,approach,neg,approach-neg,1,1,504.89999999990687
sub-040,137,0,FALSE,left,approach,neg,insect19_crop.jpg,2,14,TRUE,136,1,2451.8726,40,EAT                                    DON'T EAT,2451.238,2435.108,2245.1685,left,1,left,left,eat,eat,approach,neg,approach-neg,1,1,634.6000000000931
sub-040,138,0,FALSE,left,approach,neg,insect31_crop.jpg,2,14,TRUE,137,1,2453.8079,40,EAT                                    DON'T EAT,2453.2563,2435.108,2245.1685,left,1,left,left,eat,eat,approach,neg,approach-neg,1,1,551.6000000000931
sub-040,139,0,TRUE,left,avoid,neg,fungus23_crop.jpg,2,14,TRUE,138,2,2456.1804,40,EAT                                    DON'T EAT,2455.2747,2435.108,2245.1685,left,2,right,right,not_eat,not_eat,approach,neg,approach-neg,1,1,905.7000000006519
sub-040,140,0,FALSE,left,approach,neg,insect7_crop.jpg,2,14,TRUE,139,1,2457.9612,40,EAT                                    DON'T EAT,2457.293,2435.108,2245.1685,left,1,left,left,eat,eat,approach,neg,approach-neg,1,1,668.2000000001863
sub-040,141,0,FALSE,left,avoid,neg,fungus36_crop.jpg,2,15,TRUE,140,2,2477.8623,40,EAT                                    DON'T EAT,2476.876,2472.856,2245.1685,left,2,right,right,not_eat,not_eat,avoid,neg,avoid-neg,1,1,986.2999999998137
sub-040,142,0,FALSE,left,avoid,neg,fungus16_crop.jpg,2,15,TRUE,141,2,2479.6062,40,EAT                                    DON'T EAT,2478.894,2472.856,2245.1685,left,2,right,right,not_eat,not_eat,avoid,neg,avoid-neg,1,1,712.2000000001863
sub-040,143,0,FALSE,left,avoid,neg,fungus17_crop.jpg,2,15,TRUE,142,2,2481.6963,40,EAT                                    DON'T EAT,2480.9126,2472.856,2245.1685,left,2,right,right,not_eat,not_eat,avoid,neg,avoid-neg,1,1,783.7000000001863
sub-040,144,0,FALSE,left,avoid,neg,fungus6_crop.jpg,2,15,TRUE,143,2,2483.5952,40,EAT                                    DON'T EAT,2482.9307,2472.856,2245.1685,left,2,right,right,not_eat,not_eat,avoid,neg,avoid-neg,1,1,664.5000000004657
sub-040,145,0,TRUE,left,approach,neg,insect39_crop.jpg,2,15,TRUE,144,1,2485.7598,40,EAT                                    DON'T EAT,2484.9492,2472.856,2245.1685,left,1,left,left,eat,eat,avoid,neg,avoid-neg,1,1,810.5999999996275
sub-040,146,0,FALSE,left,avoid,neg,fungus31_crop.jpg,2,15,TRUE,145,2,2487.7424,40,EAT                                    DON'T EAT,2486.9675,2472.856,2245.1685,left,2,right,right,not_eat,not_eat,avoid,neg,avoid-neg,1,1,774.8999999999069
sub-040,147,0,FALSE,left,avoid,neg,fungus24_crop.jpg,2,15,TRUE,146,2,2489.6091,40,EAT                                    DON'T EAT,2488.9858,2472.856,2245.1685,left,2,right,right,not_eat,not_eat,avoid,neg,avoid-neg,1,1,623.3000000002794
sub-040,148,0,TRUE,left,approach,pos,cake32_crop.jpg,2,15,TRUE,147,1,2491.9768,40,EAT                                    DON'T EAT,2491.0044,2472.856,2245.1685,left,1,left,left,eat,eat,avoid,neg,avoid-neg,1,1,972.3999999999069
sub-040,149,0,FALSE,left,avoid,neg,fungus39_crop.jpg,2,15,TRUE,148,2,2493.9126,40,EAT                                    DON'T EAT,2493.0227,2472.856,2245.1685,left,2,right,right,not_eat,not_eat,avoid,neg,avoid-neg,1,1,889.8999999999069
sub-040,150,0,FALSE,left,avoid,neg,fungus34_crop.jpg,2,15,TRUE,149,2,2495.907,40,EAT                                    DON'T EAT,2495.041,2472.856,2245.1685,left,2,right,right,not_eat,not_eat,avoid,neg,avoid-neg,1,1,866
sub-040,151,3,FALSE,right,avoid,neg,fungus9_crop.jpg,2,16,TRUE,150,2,2513.6897,40,EAT                                    DON'T EAT,2512.6724,2508.6523,2245.1685,left,2,right,right,not_eat,not_eat,avoid,neg,avoid-neg,1,1,1017.2999999998137
sub-040,152,3,FALSE,right,avoid,neg,fungus19_crop.jpg,2,16,TRUE,151,2,2515.3196,40,EAT                                    DON'T EAT,2514.6907,2508.6523,2245.1685,left,2,right,right,not_eat,not_eat,avoid,neg,avoid-neg,1,1,628.8999999994412
sub-040,153,3,FALSE,right,avoid,neg,fungus33_crop.jpg,2,16,TRUE,152,2,2517.4014,40,EAT                                    DON'T EAT,2516.709,2508.6523,2245.1685,left,2,right,right,not_eat,not_eat,avoid,neg,avoid-neg,1,1,692.4000000003725
sub-040,154,3,TRUE,right,approach,neg,insect12_crop.jpg,2,16,TRUE,153,1,2519.4592,40,EAT                                    DON'T EAT,2518.7273,2508.6523,2245.1685,left,1,left,left,eat,eat,avoid,neg,avoid-neg,1,1,731.8999999999069
sub-040,155,3,FALSE,right,avoid,neg,fungus8_crop.jpg,2,16,TRUE,154,2,2521.6536,40,EAT                                    DON'T EAT,2520.7456,2508.6523,2245.1685,left,2,right,right,not_eat,not_eat,avoid,neg,avoid-neg,1,1,908
sub-040,156,3,FALSE,right,avoid,neg,fungus28_crop.jpg,2,16,TRUE,155,2,2523.3638,40,EAT                                    DON'T EAT,2522.764,2508.6523,2245.1685,left,2,right,right,not_eat,not_eat,avoid,neg,avoid-neg,1,1,599.8000000002794
sub-040,157,3,FALSE,right,avoid,neg,fungus17_crop.jpg,2,16,TRUE,156,2,2525.4836,40,EAT                                    DON'T EAT,2524.7825,2508.6523,2245.1685,left,2,right,right,not_eat,not_eat,avoid,neg,avoid-neg,1,1,701.1000000000931
sub-040,158,3,FALSE,right,avoid,neg,fungus26_crop.jpg,2,16,TRUE,157,2,2527.425,40,EAT                                    DON'T EAT,2526.8008,2508.6523,2245.1685,left,2,right,right,not_eat,not_eat,avoid,neg,avoid-neg,1,1,624.2000000001863
sub-040,159,3,TRUE,right,approach,pos,cake4_crop.jpg,2,16,TRUE,158,1,2529.5647,40,EAT                                    DON'T EAT,2528.819,2508.6523,2245.1685,left,1,left,left,eat,eat,avoid,neg,avoid-neg,1,1,745.6999999997206
sub-040,160,3,FALSE,right,avoid,neg,fungus30_crop.jpg,2,16,TRUE,159,2,2531.5679,40,EAT                                    DON'T EAT,2530.8374,2508.6523,2245.1685,left,2,right,right,not_eat,not_eat,avoid,neg,avoid-neg,1,1,730.5
sub-040,161,3,FALSE,left,approach,neg,insect13_crop.jpg,3,17,TRUE,160,1,2629.9785,40,EAT                                    DON'T EAT,2629.1858,2625.1655,2612.4106,right,1,left,left,eat,eat,approach,neg,approach-neg,1,1,792.6999999997206
sub-040,162,3,FALSE,left,approach,neg,insect26_crop.jpg,3,17,TRUE,161,1,2632.2344,40,EAT                                    DON'T EAT,2631.204,2625.1655,2612.4106,right,1,left,left,eat,eat,approach,neg,approach-neg,1,1,1030.3999999999069
sub-040,163,3,TRUE,left,avoid,neg,fungus27_crop.jpg,3,17,TRUE,162,2,2634.1804,40,EAT                                    DON'T EAT,2633.2224,2625.1655,2612.4106,right,2,right,right,not_eat,not_eat,approach,neg,approach-neg,1,1,958.0000000004657
sub-040,164,3,FALSE,left,approach,neg,insect23_crop.jpg,3,17,TRUE,163,1,2635.8662,40,EAT                                    DON'T EAT,2635.2407,2625.1655,2612.4106,right,1,left,left,eat,eat,approach,neg,approach-neg,1,1,625.5
sub-040,165,3,FALSE,left,approach,neg,insect14_crop.jpg,3,17,TRUE,164,1,2638.0361,40,EAT                                    DON'T EAT,2637.259,2625.1655,2612.4106,right,1,left,left,eat,eat,approach,neg,approach-neg,1,1,777.0999999996275
sub-040,166,3,TRUE,left,avoid,pos,meat4_crop.jpg,3,17,TRUE,165,2,2640.3416,40,EAT                                    DON'T EAT,2639.2776,2625.1655,2612.4106,right,2,right,right,not_eat,not_eat,approach,neg,approach-neg,1,1,1064
sub-040,167,3,FALSE,left,approach,neg,insect11_crop.jpg,3,17,TRUE,166,1,2641.945,40,EAT                                    DON'T EAT,2641.296,2625.1655,2612.4106,right,1,left,left,eat,eat,approach,neg,approach-neg,1,1,649
sub-040,168,3,FALSE,left,approach,neg,insect35_crop.jpg,3,17,TRUE,167,1,2643.7854,40,EAT                                    DON'T EAT,2643.314,2625.1655,2612.4106,right,1,left,left,eat,eat,approach,neg,approach-neg,1,1,471.40000000037253
sub-040,169,3,FALSE,left,approach,neg,insect4_crop.jpg,3,17,TRUE,168,1,2645.9526,40,EAT                                    DON'T EAT,2645.3325,2625.1655,2612.4106,right,1,left,left,eat,eat,approach,neg,approach-neg,1,1,620.1000000000931
sub-040,170,3,FALSE,left,approach,neg,insect12_crop.jpg,3,17,TRUE,169,1,2647.834,40,EAT                                    DON'T EAT,2647.3508,2625.1655,2612.4106,right,1,left,left,eat,eat,approach,neg,approach-neg,1,1,483.1999999997206
sub-040,171,3,FALSE,left,avoid,neg,fungus20_crop.jpg,3,18,TRUE,170,2,2667.1785,40,EAT                                    DON'T EAT,2666.083,2662.063,2612.4106,right,2,right,right,not_eat,not_eat,avoid,neg,avoid-neg,1,1,1095.5
sub-040,172,3,FALSE,left,avoid,neg,fungus13_crop.jpg,3,18,TRUE,171,2,2668.8557,40,EAT                                    DON'T EAT,2668.1016,2662.063,2612.4106,right,2,right,right,not_eat,not_eat,avoid,neg,avoid-neg,1,1,754.1000000000931
sub-040,173,3,FALSE,left,avoid,neg,fungus21_crop.jpg,3,18,TRUE,172,2,2670.7312,40,EAT                                    DON'T EAT,2670.1199,2662.063,2612.4106,right,2,right,right,not_eat,not_eat,avoid,neg,avoid-neg,1,1,611.2999999998137
sub-040,174,3,TRUE,left,approach,pos,cake27_crop.jpg,3,18,TRUE,173,1,2672.9446,40,EAT                                    DON'T EAT,2672.1382,2662.063,2612.4106,right,1,left,left,eat,eat,avoid,neg,avoid-neg,1,1,806.3999999999069
sub-040,175,3,FALSE,left,avoid,neg,fungus22_crop.jpg,3,18,TRUE,174,2,2674.8591,40,EAT                                    DON'T EAT,2674.1565,2662.063,2612.4106,right,2,right,right,not_eat,not_eat,avoid,neg,avoid-neg,1,1,702.6000000000931
sub-040,176,3,FALSE,left,avoid,neg,fungus10_crop.jpg,3,18,TRUE,175,2,2676.8398,40,EAT                                    DON'T EAT,2676.1748,2662.063,2612.4106,right,2,right,right,not_eat,not_eat,avoid,neg,avoid-neg,1,1,665.0000000004657
sub-040,177,3,FALSE,left,avoid,neg,fungus15_crop.jpg,3,18,TRUE,176,2,2678.9004,40,EAT                                    DON'T EAT,2678.193,2662.063,2612.4106,right,2,right,right,not_eat,not_eat,avoid,neg,avoid-neg,1,1,707.3999999999069
sub-040,178,3,FALSE,left,avoid,neg,fungus4_crop.jpg,3,18,TRUE,177,2,2680.942,40,EAT                                    DON'T EAT,2680.2114,2662.063,2612.4106,right,2,right,right,not_eat,not_eat,avoid,neg,avoid-neg,1,1,730.5999999996275
sub-040,179,3,FALSE,left,avoid,neg,fungus37_crop.jpg,3,18,TRUE,178,2,2683.0596,40,EAT                                    DON'T EAT,2682.23,2662.063,2612.4106,right,2,right,right,not_eat,not_eat,avoid,neg,avoid-neg,1,1,829.6000000000931
sub-040,180,3,TRUE,left,approach,neg,insect24_crop.jpg,3,18,TRUE,179,1,2685.108,40,EAT                                    DON'T EAT,2684.2483,2662.063,2612.4106,right,1,left,left,eat,eat,avoid,neg,avoid-neg,1,1,859.6999999997206
sub-040,181,1,FALSE,left,avoid,neg,fungus7_crop.jpg,3,19,TRUE,180,2,2701.5256,40,EAT                                    DON'T EAT,2700.4949,2696.475,2612.4106,right,2,right,right,not_eat,not_eat,avoid,neg,avoid-neg,1,1,1030.6999999997206
sub-040,182,1,FALSE,left,avoid,neg,fungus35_crop.jpg,3,19,TRUE,181,2,2703.314,40,EAT                                    DON'T EAT,2702.5132,2696.475,2612.4106,right,2,right,right,not_eat,not_eat,avoid,neg,avoid-neg,1,1,800.8000000002794
sub-040,183,1,FALSE,left,avoid,neg,fungus25_crop.jpg,3,19,TRUE,182,2,2705.5188,40,EAT                                    DON'T EAT,2704.5315,2696.475,2612.4106,right,2,right,right,not_eat,not_eat,avoid,neg,avoid-neg,1,1,987.2999999998137
sub-040,184,1,FALSE,left,avoid,neg,fungus40_crop.jpg,3,19,TRUE,183,2,2707.4934,40,EAT                                    DON'T EAT,2706.5498,2696.475,2612.4106,right,2,right,right,not_eat,not_eat,avoid,neg,avoid-neg,1,1,943.6000000000931
sub-040,185,1,TRUE,left,approach,neg,insect38_crop.jpg,3,19,TRUE,184,1,2709.4343,40,EAT                                    DON'T EAT,2708.5684,2696.475,2612.4106,right,1,left,left,eat,eat,avoid,neg,avoid-neg,1,1,865.8999999999069
sub-040,186,1,FALSE,left,avoid,neg,fungus26_crop.jpg,3,19,TRUE,185,2,2711.4534,40,EAT                                    DON'T EAT,2710.5867,2696.475,2612.4106,right,2,right,right,not_eat,not_eat,avoid,neg,avoid-neg,1,1,866.7000000001863
sub-040,187,1,FALSE,left,avoid,neg,fungus28_crop.jpg,3,19,TRUE,186,2,2714.4429,40,EAT                                    DON'T EAT,2712.605,2696.475,2612.4106,right,2,right,right,not_eat,not_eat,avoid,neg,avoid-neg,1,1,1837.8999999999069
sub-040,188,1,FALSE,left,avoid,neg,fungus14_crop.jpg,3,19,TRUE,187,2,2715.657,40,EAT                                    DON'T EAT,2714.6233,2696.475,2612.4106,right,2,right,right,not_eat,not_eat,avoid,neg,avoid-neg,1,1,1033.6999999997206
sub-040,189,1,TRUE,left,approach,pos,cake19_crop.jpg,3,19,TRUE,188,1,2718.1409,40,EAT                                    DON'T EAT,2716.6416,2696.475,2612.4106,right,1,left,left,eat,eat,avoid,neg,avoid-neg,1,1,1499.2999999998137
sub-040,190,1,FALSE,left,avoid,neg,fungus9_crop.jpg,3,19,TRUE,189,2,2719.5994,40,EAT                                    DON'T EAT,2718.6602,2696.475,2612.4106,right,2,right,right,not_eat,not_eat,avoid,neg,avoid-neg,1,1,939.2000000001863
sub-040,191,0,FALSE,right,avoid,neg,fungus27_crop.jpg,3,20,TRUE,190,2,2738.1838,40,EAT                                    DON'T EAT,2737.2588,2733.2388,2612.4106,right,2,right,right,not_eat,not_eat,avoid,neg,avoid-neg,1,1,924.9999999995343
sub-040,192,0,FALSE,right,avoid,neg,fungus22_crop.jpg,3,20,TRUE,191,2,2739.9866,40,EAT                                    DON'T EAT,2739.277,2733.2388,2612.4106,right,2,right,right,not_eat,not_eat,avoid,neg,avoid-neg,1,1,709.6000000000931
sub-040,193,0,FALSE,right,avoid,neg,fungus21_crop.jpg,3,20,TRUE,192,2,2741.9866,40,EAT                                    DON'T EAT,2741.2957,2733.2388,2612.4106,right,2,right,right,not_eat,not_eat,avoid,neg,avoid-neg,1,1,690.8999999999069
sub-040,194,0,FALSE,right,avoid,neg,fungus25_crop.jpg,3,20,TRUE,193,2,2744.0583,40,EAT                                    DON'T EAT,2743.3137,2733.2388,2612.4106,right,2,right,right,not_eat,not_eat,avoid,neg,avoid-neg,1,1,744.6000000000931
sub-040,195,0,FALSE,right,avoid,neg,fungus32_crop.jpg,3,20,TRUE,194,2,2746.1797,40,EAT                                    DON'T EAT,2745.3323,2733.2388,2612.4106,right,2,right,right,not_eat,not_eat,avoid,neg,avoid-neg,1,1,847.4000000003725
sub-040,196,0,TRUE,right,approach,neg,insect38_crop.jpg,3,20,TRUE,195,1,2748.1934,40,EAT                                    DON'T EAT,2747.3506,2733.2388,2612.4106,right,1,left,left,eat,eat,avoid,neg,avoid-neg,1,1,842.7999999998137
sub-040,197,0,FALSE,right,avoid,neg,fungus23_crop.jpg,3,20,TRUE,196,2,2750.1938,40,EAT                                    DON'T EAT,2749.369,2733.2388,2612.4106,right,2,right,right,not_eat,not_eat,avoid,neg,avoid-neg,1,1,824.7999999998137
sub-040,198,0,FALSE,right,avoid,neg,fungus37_crop.jpg,3,20,TRUE,197,2,2752.1638,40,EAT                                    DON'T EAT,2751.3872,2733.2388,2612.4106,right,2,right,right,not_eat,not_eat,avoid,neg,avoid-neg,1,1,776.5999999996275
sub-040,199,0,TRUE,right,approach,pos,cake8_crop.jpg,3,20,TRUE,198,1,2754.317,40,EAT                                    DON'T EAT,2753.4055,2733.2388,2612.4106,right,1,left,left,eat,eat,avoid,neg,avoid-neg,1,1,911.5
sub-040,200,0,FALSE,right,avoid,neg,fungus29_crop.jpg,3,20,TRUE,199,2,2756.2407,40,EAT                                    DON'T EAT,2755.424,2733.2388,2612.4106,right,2,right,right,not_eat,not_eat,avoid,neg,avoid-neg,1,1,816.6999999997206
sub-040,201,0,TRUE,right,avoid,pos,meat40_crop.jpg,3,21,TRUE,200,2,2774.5723,40,EAT                                    DON'T EAT,2773.539,2769.5188,2612.4106,right,2,right,right,not_eat,not_eat,approach,neg,approach-neg,1,1,1033.2999999998137
sub-040,202,0,FALSE,right,approach,neg,insect2_crop.jpg,3,21,TRUE,201,1,2776.4521,40,EAT                                    DON'T EAT,2775.5574,2769.5188,2612.4106,right,1,left,left,eat,eat,approach,neg,approach-neg,1,1,894.6999999997206
sub-040,203,0,FALSE,right,approach,neg,insect1_crop.jpg,3,21,TRUE,202,1,2778.276,40,EAT                                    DON'T EAT,2777.5757,2769.5188,2612.4106,right,1,left,left,eat,eat,approach,neg,approach-neg,1,1,700.3000000002794
sub-040,204,0,FALSE,right,approach,neg,insect18_crop.jpg,3,21,TRUE,203,1,2780.2192,40,EAT                                    DON'T EAT,2779.594,2769.5188,2612.4106,right,1,left,left,eat,eat,approach,neg,approach-neg,1,1,625.2000000001863
sub-040,205,0,FALSE,right,approach,neg,insect39_crop.jpg,3,21,TRUE,204,1,2782.2144,40,EAT                                    DON'T EAT,2781.6123,2769.5188,2612.4106,right,1,left,left,eat,eat,approach,neg,approach-neg,1,1,602.1000000000931
sub-040,206,0,FALSE,right,approach,neg,insect19_crop.jpg,3,21,TRUE,205,1,2784.2446,40,EAT                                    DON'T EAT,2783.6309,2769.5188,2612.4106,right,1,left,left,eat,eat,approach,neg,approach-neg,1,1,613.7000000001863
sub-040,207,0,FALSE,right,approach,neg,insect34_crop.jpg,3,21,TRUE,206,1,2786.19,40,EAT                                    DON'T EAT,2785.6492,2769.5188,2612.4106,right,1,left,left,eat,eat,approach,neg,approach-neg,1,1,540.8000000002794
sub-040,208,0,TRUE,right,avoid,neg,fungus39_crop.jpg,3,21,TRUE,207,2,2788.624,40,EAT                                    DON'T EAT,2787.6675,2769.5188,2612.4106,right,2,right,right,not_eat,not_eat,approach,neg,approach-neg,1,1,956.5
sub-040,209,0,FALSE,right,approach,neg,insect4_crop.jpg,3,21,TRUE,208,1,2790.3782,40,EAT                                    DON'T EAT,2789.6858,2769.5188,2612.4106,right,1,left,left,eat,eat,approach,neg,approach-neg,1,1,692.3999999999069
sub-040,210,0,FALSE,right,approach,neg,insect15_crop.jpg,3,21,TRUE,209,1,2792.25,40,EAT                                    DON'T EAT,2791.704,2769.5188,2612.4106,right,1,left,left,eat,eat,approach,neg,approach-neg,1,1,546
sub-040,211,0,FALSE,right,approach,pos,cake1_crop.jpg,3,22,TRUE,210,1,2812.4333,40,EAT                                    DON'T EAT,2811.4705,2807.4504,2612.4106,right,1,left,left,eat,eat,approach,pos,approach-pos,1,1,962.8000000002794
sub-040,212,0,TRUE,right,avoid,pos,meat8_crop.jpg,3,22,TRUE,211,2,2814.4146,40,EAT                                    DON'T EAT,2813.4888,2807.4504,2612.4106,right,2,right,right,not_eat,not_eat,approach,pos,approach-pos,1,1,925.7999999998137
sub-040,213,0,FALSE,right,approach,pos,cake32_crop.jpg,3,22,TRUE,212,1,2816.6646,40,EAT                                    DON'T EAT,2815.507,2807.4504,2612.4106,right,1,left,left,eat,eat,approach,pos,approach-pos,1,1,1157.6000000000931
sub-040,214,0,TRUE,right,avoid,neg,fungus34_crop.jpg,3,22,TRUE,213,2,2818.4219,40,EAT                                    DON'T EAT,2817.5256,2807.4504,2612.4106,right,2,right,right,not_eat,not_eat,approach,pos,approach-pos,1,1,896.2999999998137
sub-040,215,0,FALSE,right,approach,pos,cake3_crop.jpg,3,22,TRUE,214,1,2820.3975,40,EAT                                    DON'T EAT,2819.544,2807.4504,2612.4106,right,1,left,left,eat,eat,approach,pos,approach-pos,1,1,853.5
sub-040,216,0,FALSE,right,approach,pos,cake17_crop.jpg,3,22,TRUE,215,1,2822.23,40,EAT                                    DON'T EAT,2821.5623,2807.4504,2612.4106,right,1,left,left,eat,eat,approach,pos,approach-pos,1,1,667.6999999997206
sub-040,217,0,FALSE,right,approach,pos,cake19_crop.jpg,3,22,TRUE,216,1,2824.2256,40,EAT                                    DON'T EAT,2823.5806,2807.4504,2612.4106,right,1,left,left,eat,eat,approach,pos,approach-pos,1,1,645.0000000004657
sub-040,218,0,FALSE,right,approach,pos,cake13_crop.jpg,3,22,TRUE,217,1,2826.2996,40,EAT                                    DON'T EAT,2825.5989,2807.4504,2612.4106,right,1,left,left,eat,eat,approach,pos,approach-pos,1,1,700.6999999997206
sub-040,219,0,FALSE,right,approach,pos,cake22_crop.jpg,3,22,TRUE,218,1,2828.3523,40,EAT                                    DON'T EAT,2827.6172,2807.4504,2612.4106,right,1,left,left,eat,eat,approach,pos,approach-pos,1,1,735.0999999996275
sub-040,220,0,FALSE,right,approach,pos,cake2_crop.jpg,3,22,TRUE,219,1,2830.2368,40,EAT                                    DON'T EAT,2829.6357,2807.4504,2612.4106,right,1,left,left,eat,eat,approach,pos,approach-pos,1,1,601.1000000005588
sub-040,221,2,FALSE,left,approach,pos,cake1_crop.jpg,3,23,TRUE,220,1,2848.488,40,EAT                                    DON'T EAT,2847.6672,2843.6472,2612.4106,right,1,left,left,eat,eat,approach,pos,approach-pos,1,1,820.8000000002794
sub-040,222,2,FALSE,left,approach,pos,cake21_crop.jpg,3,23,TRUE,221,1,2850.2869,40,EAT                                    DON'T EAT,2849.6855,2843.6472,2612.4106,right,1,left,left,eat,eat,approach,pos,approach-pos,1,1,601.3999999999069
sub-040,223,2,TRUE,left,avoid,neg,fungus3_crop.jpg,3,23,TRUE,222,2,2852.8132,40,EAT                                    DON'T EAT,2851.7039,2843.6472,2612.4106,right,2,right,right,not_eat,not_eat,approach,pos,approach-pos,1,1,1109.3000000002794
sub-040,224,2,FALSE,left,approach,pos,cake11_crop.jpg,3,23,TRUE,223,1,2854.4436,40,EAT                                    DON'T EAT,2853.7224,2843.6472,2612.4106,right,1,left,left,eat,eat,approach,pos,approach-pos,1,1,721.2000000001863
sub-040,225,2,FALSE,left,approach,pos,cake10_crop.jpg,3,23,TRUE,224,1,2856.5303,40,EAT                                    DON'T EAT,2855.7407,2843.6472,2612.4106,right,1,left,left,eat,eat,approach,pos,approach-pos,1,1,789.6000000000931
sub-040,226,2,TRUE,left,avoid,pos,meat18_crop.jpg,3,23,TRUE,225,2,2858.601,40,EAT                                    DON'T EAT,2857.759,2843.6472,2612.4106,right,2,right,right,not_eat,not_eat,approach,pos,approach-pos,1,1,842
sub-040,227,2,FALSE,left,approach,pos,cake37_crop.jpg,3,23,TRUE,226,1,2860.6218,40,EAT                                    DON'T EAT,2859.7773,2843.6472,2612.4106,right,1,left,left,eat,eat,approach,pos,approach-pos,1,1,844.4999999995343
sub-040,228,2,FALSE,left,approach,pos,cake5_crop.jpg,3,23,TRUE,227,1,2862.5527,40,EAT                                    DON'T EAT,2861.7957,2843.6472,2612.4106,right,1,left,left,eat,eat,approach,pos,approach-pos,1,1,757
sub-040,229,2,FALSE,left,approach,pos,cake12_crop.jpg,3,23,TRUE,228,1,2864.5706,40,EAT                                    DON'T EAT,2863.814,2843.6472,2612.4106,right,1,left,left,eat,eat,approach,pos,approach-pos,1,1,756.6000000000931
sub-040,230,2,FALSE,left,approach,pos,cake15_crop.jpg,3,23,TRUE,229,1,2866.4795,40,EAT                                    DON'T EAT,2865.8323,2843.6472,2612.4106,right,1,left,left,eat,eat,approach,pos,approach-pos,1,1,647.2000000001863
sub-040,231,2,FALSE,right,approach,neg,insect5_crop.jpg,3,24,TRUE,230,1,2885.2124,40,EAT                                    DON'T EAT,2884.2979,2880.2776,2612.4106,right,1,left,left,eat,eat,approach,neg,approach-neg,1,1,914.5
sub-040,232,2,FALSE,right,approach,neg,insect6_crop.jpg,3,24,TRUE,231,1,2886.9075,40,EAT                                    DON'T EAT,2886.3162,2880.2776,2612.4106,right,1,left,left,eat,eat,approach,neg,approach-neg,1,1,591.2999999998137
sub-040,233,2,TRUE,right,avoid,neg,fungus18_crop.jpg,3,24,TRUE,232,2,2889.2437,40,EAT                                    DON'T EAT,2888.3342,2880.2776,2612.4106,right,2,right,right,not_eat,not_eat,approach,neg,approach-neg,1,1,909.5000000004657
sub-040,234,2,FALSE,right,approach,neg,insect22_crop.jpg,3,24,TRUE,233,1,2891.0964,40,EAT                                    DON'T EAT,2890.3525,2880.2776,2612.4106,right,1,left,left,eat,eat,approach,neg,approach-neg,1,1,743.8999999999069
sub-040,235,2,FALSE,right,approach,neg,insect32_crop.jpg,3,24,TRUE,234,1,2892.9077,40,EAT                                    DON'T EAT,2892.371,2880.2776,2612.4106,right,1,left,left,eat,eat,approach,neg,approach-neg,1,1,536.7000000001863
sub-040,236,2,FALSE,right,approach,neg,insect37_crop.jpg,3,24,TRUE,235,1,2895.0767,40,EAT                                    DON'T EAT,2894.3894,2880.2776,2612.4106,right,1,left,left,eat,eat,approach,neg,approach-neg,1,1,687.3000000002794
sub-040,237,2,TRUE,right,avoid,pos,meat26_crop.jpg,3,24,TRUE,236,2,2897.3455,40,EAT                                    DON'T EAT,2896.4077,2880.2776,2612.4106,right,2,right,right,not_eat,not_eat,approach,neg,approach-neg,1,1,937.7999999998137
sub-040,238,2,FALSE,right,approach,neg,insect35_crop.jpg,3,24,TRUE,237,1,2899.305,40,EAT                                    DON'T EAT,2898.426,2880.2776,2612.4106,right,1,left,left,eat,eat,approach,neg,approach-neg,1,1,879
sub-040,239,2,FALSE,right,approach,neg,insect3_crop.jpg,3,24,TRUE,238,1,2901.13,40,EAT                                    DON'T EAT,2900.4443,2880.2776,2612.4106,right,1,left,left,eat,eat,approach,neg,approach-neg,1,1,685.6999999997206
sub-040,240,2,FALSE,right,approach,neg,insect8_crop.jpg,3,24,TRUE,239,1,2903.165,40,EAT                                    DON'T EAT,2902.4626,2880.2776,2612.4106,right,1,left,left,eat,eat,approach,neg,approach-neg,1,1,702.4000000003725
sub-040,241,1,FALSE,left,approach,neg,insect29_crop.jpg,4,25,TRUE,240,1,3003.3682,40,EAT                                    DON'T EAT,3002.5464,2998.5261,2987.6487,left,1,left,left,eat,eat,approach,neg,approach-neg,1,1,821.7999999993481
sub-040,242,1,FALSE,left,approach,neg,insect30_crop.jpg,4,25,TRUE,241,1,3005.2212,40,EAT                                    DON'T EAT,3004.5647,2998.5261,2987.6487,left,1,left,left,eat,eat,approach,neg,approach-neg,1,1,656.5000000004657
sub-040,243,1,FALSE,left,approach,neg,insect34_crop.jpg,4,25,TRUE,242,1,3007.1016,40,EAT                                    DON'T EAT,3006.583,2998.5261,2987.6487,left,1,left,left,eat,eat,approach,neg,approach-neg,1,1,518.6000000000931
sub-040,244,1,FALSE,left,approach,neg,insect22_crop.jpg,4,25,TRUE,243,1,3009.1636,40,EAT                                    DON'T EAT,3008.6013,2998.5261,2987.6487,left,1,left,left,eat,eat,approach,neg,approach-neg,1,1,562.2999999998137
sub-040,245,1,TRUE,left,avoid,neg,fungus38_crop.jpg,4,25,TRUE,244,2,3011.5737,40,EAT                                    DON'T EAT,3010.6199,2998.5261,2987.6487,left,2,right,right,not_eat,not_eat,approach,neg,approach-neg,1,1,953.7999999993481
sub-040,246,1,FALSE,left,approach,neg,insect3_crop.jpg,4,25,TRUE,245,1,3013.2969,40,EAT                                    DON'T EAT,3012.638,2998.5261,2987.6487,left,1,left,left,eat,eat,approach,neg,approach-neg,1,1,658.8999999999069
sub-040,247,1,FALSE,left,approach,neg,insect21_crop.jpg,4,25,TRUE,246,1,3015.263,40,EAT                                    DON'T EAT,3014.6565,2998.5261,2987.6487,left,1,left,left,eat,eat,approach,neg,approach-neg,1,1,606.5
sub-040,248,1,FALSE,left,approach,neg,insect17_crop.jpg,4,25,TRUE,247,1,3017.4915,40,EAT                                    DON'T EAT,3016.6748,2998.5261,2987.6487,left,1,left,left,eat,eat,approach,neg,approach-neg,1,1,816.7000000001863
sub-040,249,1,TRUE,left,avoid,pos,meat3_crop.jpg,4,25,TRUE,248,2,3019.797,40,EAT                                    DON'T EAT,3018.693,2998.5261,2987.6487,left,2,right,right,not_eat,not_eat,approach,neg,approach-neg,1,1,1104
sub-040,250,1,FALSE,left,approach,neg,insect6_crop.jpg,4,25,TRUE,249,1,3021.442,40,EAT                                    DON'T EAT,3020.7114,2998.5261,2987.6487,left,1,left,left,eat,eat,approach,neg,approach-neg,1,1,730.5999999996275
sub-040,251,2,FALSE,left,avoid,pos,meat24_crop.jpg,4,26,TRUE,250,2,3041.3901,40,EAT                                    DON'T EAT,3040.2444,3036.2244,2987.6487,left,2,right,right,not_eat,not_eat,avoid,pos,avoid-pos,1,1,1145.7000000001863
sub-040,252,2,FALSE,left,avoid,pos,meat33_crop.jpg,4,26,TRUE,251,2,3042.9717,40,EAT                                    DON'T EAT,3042.2627,3036.2244,2987.6487,left,2,right,right,not_eat,not_eat,avoid,pos,avoid-pos,1,1,709
sub-040,253,2,FALSE,left,avoid,pos,meat5_crop.jpg,4,26,TRUE,252,2,3044.9792,40,EAT                                    DON'T EAT,3044.281,3036.2244,2987.6487,left,2,right,right,not_eat,not_eat,avoid,pos,avoid-pos,1,1,698.2000000001863
sub-040,254,2,FALSE,left,avoid,pos,meat40_crop.jpg,4,26,TRUE,253,2,3047.0295,40,EAT                                    DON'T EAT,3046.2996,3036.2244,2987.6487,left,2,right,right,not_eat,not_eat,avoid,pos,avoid-pos,1,1,729.9000000003725
sub-040,255,2,FALSE,left,avoid,pos,meat32_crop.jpg,4,26,TRUE,254,2,3048.9937,40,EAT                                    DON'T EAT,3048.3176,3036.2244,2987.6487,left,2,right,right,not_eat,not_eat,avoid,pos,avoid-pos,1,1,676.1000000005588
sub-040,256,2,TRUE,left,approach,pos,cake29_crop.jpg,4,26,TRUE,255,1,3051.121,40,EAT                                    DON'T EAT,3050.336,3036.2244,2987.6487,left,1,left,left,eat,eat,avoid,pos,avoid-pos,1,1,785
sub-040,257,2,FALSE,left,avoid,pos,meat7_crop.jpg,4,26,TRUE,256,2,3053.1807,40,EAT                                    DON'T EAT,3052.3542,3036.2244,2987.6487,left,2,right,right,not_eat,not_eat,avoid,pos,avoid-pos,1,1,826.4999999995343
sub-040,258,2,FALSE,left,avoid,pos,meat22_crop.jpg,4,26,TRUE,257,2,3055.1428,40,EAT                                    DON'T EAT,3054.3728,3036.2244,2987.6487,left,2,right,right,not_eat,not_eat,avoid,pos,avoid-pos,1,1,770
sub-040,259,2,TRUE,left,approach,neg,insect10_crop.jpg,4,26,TRUE,258,1,3057.0896,40,EAT                                    DON'T EAT,3056.391,3036.2244,2987.6487,left,1,left,left,eat,eat,avoid,pos,avoid-pos,1,1,698.5999999996275
sub-040,260,2,FALSE,left,avoid,pos,meat23_crop.jpg,4,26,TRUE,259,2,3059.2156,40,EAT                                    DON'T EAT,3058.4094,3036.2244,2987.6487,left,2,right,right,not_eat,not_eat,avoid,pos,avoid-pos,1,1,806.2000000001863
sub-040,261,1,FALSE,left,avoid,pos,meat12_crop.jpg,4,27,TRUE,260,2,3078.9841,40,EAT                                    DON'T EAT,3077.125,3073.105,2987.6487,left,2,right,right,not_eat,not_eat,avoid,pos,avoid-pos,1,1,1859.1000000000931
sub-040,262,1,FALSE,left,avoid,pos,meat1_crop.jpg,4,27,TRUE,261,2,3080.0942,40,EAT                                    DON'T EAT,3079.1433,3073.105,2987.6487,left,2,right,right,not_eat,not_eat,avoid,pos,avoid-pos,1,1,950.8999999999069
sub-040,263,1,FALSE,left,avoid,pos,meat8_crop.jpg,4,27,TRUE,262,2,3081.7637,40,EAT                                    DON'T EAT,3081.1619,3073.105,2987.6487,left,2,right,right,not_eat,not_eat,avoid,pos,avoid-pos,1,1,601.8000000002794
sub-040,264,1,FALSE,left,avoid,pos,meat16_crop.jpg,4,27,TRUE,263,2,3083.8906,40,EAT                                    DON'T EAT,3083.18,3073.105,2987.6487,left,2,right,right,not_eat,not_eat,avoid,pos,avoid-pos,1,1,710.6000000000931
sub-040,265,1,FALSE,left,avoid,pos,meat10_crop.jpg,4,27,TRUE,264,2,3085.98,40,EAT                                    DON'T EAT,3085.1985,3073.105,2987.6487,left,2,right,right,not_eat,not_eat,avoid,pos,avoid-pos,1,1,781.5
sub-040,266,1,FALSE,left,avoid,pos,meat31_crop.jpg,4,27,TRUE,265,2,3087.917,40,EAT                                    DON'T EAT,3087.2168,3073.105,2987.6487,left,2,right,right,not_eat,not_eat,avoid,pos,avoid-pos,1,1,700.1999999997206
sub-040,267,1,FALSE,left,avoid,pos,meat14_crop.jpg,4,27,TRUE,266,2,3089.9792,40,EAT                                    DON'T EAT,3089.235,3073.105,2987.6487,left,2,right,right,not_eat,not_eat,avoid,pos,avoid-pos,1,1,744.2000000001863
sub-040,268,1,TRUE,left,approach,neg,insect15_crop.jpg,4,27,TRUE,267,1,3092.1445,40,EAT                                    DON'T EAT,3091.2534,3073.105,2987.6487,left,1,left,left,eat,eat,avoid,pos,avoid-pos,1,1,891.1000000000931
sub-040,269,1,FALSE,left,avoid,pos,meat2_crop.jpg,4,27,TRUE,268,2,3094.0972,40,EAT                                    DON'T EAT,3093.2717,3073.105,2987.6487,left,2,right,right,not_eat,not_eat,avoid,pos,avoid-pos,1,1,825.5000000004657
sub-040,270,1,TRUE,left,approach,pos,cake36_crop.jpg,4,27,TRUE,269,1,3096.1702,40,EAT                                    DON'T EAT,3095.29,3073.105,2987.6487,left,1,left,left,eat,eat,avoid,pos,avoid-pos,1,1,880.2000000001863
sub-040,271,0,FALSE,left,avoid,pos,meat15_crop.jpg,4,28,TRUE,270,2,3113.7507,40,EAT                                    DON'T EAT,3112.621,3108.6006,2987.6487,left,2,right,right,not_eat,not_eat,avoid,pos,avoid-pos,1,1,1129.7000000001863
sub-040,272,0,FALSE,left,avoid,pos,meat13_crop.jpg,4,28,TRUE,271,2,3115.4355,40,EAT                                    DON'T EAT,3114.6396,3108.6006,2987.6487,left,2,right,right,not_eat,not_eat,avoid,pos,avoid-pos,1,1,795.8999999999069
sub-040,273,0,FALSE,left,avoid,pos,meat20_crop.jpg,4,28,TRUE,272,2,3117.3972,40,EAT                                    DON'T EAT,3116.658,3108.6006,2987.6487,left,2,right,right,not_eat,not_eat,avoid,pos,avoid-pos,1,1,739.1999999997206
sub-040,274,0,FALSE,left,avoid,pos,meat6_crop.jpg,4,28,TRUE,273,2,3119.4607,40,EAT                                    DON'T EAT,3118.6763,3108.6006,2987.6487,left,2,right,right,not_eat,not_eat,avoid,pos,avoid-pos,1,1,784.3999999999069
sub-040,275,0,TRUE,left,approach,pos,cake31_crop.jpg,4,28,TRUE,274,1,3121.6045,40,EAT                                    DON'T EAT,3120.6946,3108.6006,2987.6487,left,1,left,left,eat,eat,avoid,pos,avoid-pos,1,1,909.9000000003725
sub-040,276,0,FALSE,left,avoid,pos,meat17_crop.jpg,4,28,TRUE,275,2,3123.6328,40,EAT                                    DON'T EAT,3122.7126,3108.6006,2987.6487,left,2,right,right,not_eat,not_eat,avoid,pos,avoid-pos,1,1,920.2000000001863
sub-040,277,0,FALSE,left,avoid,pos,meat36_crop.jpg,4,28,TRUE,276,2,3125.6677,40,EAT                                    DON'T EAT,3124.7312,3108.6006,2987.6487,left,2,right,right,not_eat,not_eat,avoid,pos,avoid-pos,1,1,936.5
sub-040,278,0,TRUE,left,approach,neg,insect8_crop.jpg,4,28,TRUE,277,1,3127.5623,40,EAT                                    DON'T EAT,3126.7495,3108.6006,2987.6487,left,1,left,left,eat,eat,avoid,pos,avoid-pos,1,1,812.8000000002794
sub-040,279,0,FALSE,left,avoid,pos,meat28_crop.jpg,4,28,TRUE,278,2,3129.7102,40,EAT                                    DON'T EAT,3128.768,3108.6006,2987.6487,left,2,right,right,not_eat,not_eat,avoid,pos,avoid-pos,1,1,942.2000000001863
sub-040,280,0,FALSE,left,avoid,pos,meat34_crop.jpg,4,28,TRUE,279,2,3131.8442,40,EAT                                    DON'T EAT,3130.7861,3108.6006,2987.6487,left,2,right,right,not_eat,not_eat,avoid,pos,avoid-pos,1,1,1058.1000000005588
sub-040,281,1,FALSE,right,avoid,pos,meat19_crop.jpg,4,29,TRUE,280,2,3149.8906,40,EAT                                    DON'T EAT,3148.968,3144.948,2987.6487,left,2,right,right,not_eat,not_eat,avoid,pos,avoid-pos,1,1,922.6000000000931
sub-040,282,1,FALSE,right,avoid,pos,meat23_crop.jpg,4,29,TRUE,281,2,3151.7593,40,EAT                                    DON'T EAT,3150.9863,3144.948,2987.6487,left,2,right,right,not_eat,not_eat,avoid,pos,avoid-pos,1,1,773.0000000004657
sub-040,283,1,FALSE,right,avoid,pos,meat25_crop.jpg,4,29,TRUE,282,2,3153.6616,40,EAT                                    DON'T EAT,3153.0046,3144.948,2987.6487,left,2,right,right,not_eat,not_eat,avoid,pos,avoid-pos,1,1,657
sub-040,284,1,FALSE,right,avoid,pos,meat22_crop.jpg,4,29,TRUE,283,2,3155.703,40,EAT                                    DON'T EAT,3155.0232,3144.948,2987.6487,left,2,right,right,not_eat,not_eat,avoid,pos,avoid-pos,1,1,679.7999999998137
sub-040,285,1,FALSE,right,avoid,pos,meat6_crop.jpg,4,29,TRUE,284,2,3157.6853,40,EAT                                    DON'T EAT,3157.0413,3144.948,2987.6487,left,2,right,right,not_eat,not_eat,avoid,pos,avoid-pos,1,1,644.0000000004657
sub-040,286,1,FALSE,right,avoid,pos,meat37_crop.jpg,4,29,TRUE,285,2,3159.7405,40,EAT                                    DON'T EAT,3159.0598,3144.948,2987.6487,left,2,right,right,not_eat,not_eat,avoid,pos,avoid-pos,1,1,680.7000000001863
sub-040,287,1,FALSE,right,avoid,pos,meat5_crop.jpg,4,29,TRUE,286,2,3161.7156,40,EAT                                    DON'T EAT,3161.0781,3144.948,2987.6487,left,2,right,right,not_eat,not_eat,avoid,pos,avoid-pos,1,1,637.5
sub-040,288,1,TRUE,right,approach,neg,insect33_crop.jpg,4,29,TRUE,287,1,3163.9841,40,EAT                                    DON'T EAT,3163.0964,3144.948,2987.6487,left,1,left,left,eat,eat,avoid,pos,avoid-pos,1,1,887.7000000001863
sub-040,289,1,FALSE,right,avoid,pos,meat30_crop.jpg,4,29,TRUE,288,2,3166.7207,40,EAT                                    DON'T EAT,3165.1143,3144.948,2987.6487,left,2,right,right,not_eat,not_eat,avoid,pos,avoid-pos,1,1,1606.3999999994412
sub-040,290,1,TRUE,right,approach,pos,cake34_crop.jpg,4,29,TRUE,289,1,3168.53,40,EAT                                    DON'T EAT,3167.133,3144.948,2987.6487,left,1,left,left,eat,eat,avoid,pos,avoid-pos,1,1,1397
sub-040,291,2,TRUE,left,avoid,neg,fungus32_crop.jpg,4,30,TRUE,290,2,3188.3003,40,EAT                                    DON'T EAT,3187.1665,3183.1465,2987.6487,left,2,right,right,not_eat,not_eat,approach,neg,approach-neg,1,1,1133.7999999998137
sub-040,292,2,FALSE,left,approach,neg,insect1_crop.jpg,4,30,TRUE,291,1,3189.9697,40,EAT                                    DON'T EAT,3189.1848,3183.1465,2987.6487,left,1,left,left,eat,eat,approach,neg,approach-neg,1,1,784.9000000003725
sub-040,293,2,FALSE,left,approach,neg,insect28_crop.jpg,4,30,TRUE,292,1,3191.776,40,EAT                                    DON'T EAT,3191.2031,3183.1465,2987.6487,left,1,left,left,eat,eat,approach,neg,approach-neg,1,1,572.8999999999069
sub-040,294,2,FALSE,left,approach,neg,insect25_crop.jpg,4,30,TRUE,293,1,3193.8127,40,EAT                                    DON'T EAT,3193.2214,3183.1465,2987.6487,left,1,left,left,eat,eat,approach,neg,approach-neg,1,1,591.2999999998137
sub-040,295,2,FALSE,left,approach,neg,insect16_crop.jpg,4,30,TRUE,294,1,3195.7898,40,EAT                                    DON'T EAT,3195.2395,3183.1465,2987.6487,left,1,left,left,eat,eat,approach,neg,approach-neg,1,1,550.2999999998137
sub-040,296,2,FALSE,left,approach,neg,insect9_crop.jpg,4,30,TRUE,295,1,3197.7444,40,EAT                                    DON'T EAT,3197.258,3183.1465,2987.6487,left,1,left,left,eat,eat,approach,neg,approach-neg,1,1,486.39999999990687
sub-040,297,2,FALSE,left,approach,neg,insect37_crop.jpg,4,30,TRUE,296,1,3199.849,40,EAT                                    DON'T EAT,3199.2764,3183.1465,2987.6487,left,1,left,left,eat,eat,approach,neg,approach-neg,1,1,572.5999999996275
sub-040,298,2,TRUE,left,avoid,pos,meat19_crop.jpg,4,30,TRUE,297,2,3202.1516,40,EAT                                    DON'T EAT,3201.295,3183.1465,2987.6487,left,2,right,right,not_eat,not_eat,approach,neg,approach-neg,1,1,856.6000000000931
sub-040,299,2,FALSE,left,approach,neg,insect36_crop.jpg,4,30,TRUE,298,1,3204.1177,40,EAT                                    DON'T EAT,3203.3132,3183.1465,2987.6487,left,1,left,left,eat,eat,approach,neg,approach-neg,1,1,804.4999999995343
sub-040,300,2,FALSE,left,approach,neg,insect5_crop.jpg,4,30,TRUE,299,1,3205.9644,40,EAT                                    DON'T EAT,3205.3315,3183.1465,2987.6487,left,1,left,left,eat,eat,approach,neg,approach-neg,1,1,632.8999999999069
sub-040,301,3,TRUE,left,avoid,pos,meat38_crop.jpg,4,31,TRUE,300,2,3223.6377,40,EAT                                    DON'T EAT,3222.7793,3218.7593,2987.6487,left,2,right,right,not_eat,not_eat,approach,pos,approach-pos,1,1,858.3999999999069
sub-040,302,3,FALSE,left,approach,pos,cake22_crop.jpg,4,31,TRUE,301,1,3225.5469,40,EAT                                    DON'T EAT,3224.7976,3218.7593,2987.6487,left,1,left,left,eat,eat,approach,pos,approach-pos,1,1,749.2999999998137
sub-040,303,3,FALSE,left,approach,pos,cake30_crop.jpg,4,31,TRUE,302,1,3227.7036,40,EAT                                    DON'T EAT,3226.8162,3218.7593,2987.6487,left,1,left,left,eat,eat,approach,pos,approach-pos,1,1,887.3999999994412
sub-040,304,3,FALSE,left,approach,pos,cake9_crop.jpg,4,31,TRUE,303,1,3229.521,40,EAT                                    DON'T EAT,3228.8345,3218.7593,2987.6487,left,1,left,left,eat,eat,approach,pos,approach-pos,1,1,686.5
sub-040,305,3,FALSE,left,approach,pos,cake28_crop.jpg,4,31,TRUE,304,1,3231.489,40,EAT                                    DON'T EAT,3230.8525,3218.7593,2987.6487,left,1,left,left,eat,eat,approach,pos,approach-pos,1,1,636.5
sub-040,306,3,FALSE,left,approach,pos,cake13_crop.jpg,4,31,TRUE,305,1,3233.4756,40,EAT                                    DON'T EAT,3232.8708,3218.7593,2987.6487,left,1,left,left,eat,eat,approach,pos,approach-pos,1,1,604.7999999998137
sub-040,307,3,FALSE,left,approach,pos,cake20_crop.jpg,4,31,TRUE,306,1,3235.4631,40,EAT                                    DON'T EAT,3234.8894,3218.7593,2987.6487,left,1,left,left,eat,eat,approach,pos,approach-pos,1,1,573.7000000001863
sub-040,308,3,FALSE,left,approach,pos,cake34_crop.jpg,4,31,TRUE,307,1,3237.8179,40,EAT                                    DON'T EAT,3236.9077,3218.7593,2987.6487,left,1,left,left,eat,eat,approach,pos,approach-pos,1,1,910.1999999997206
sub-040,309,3,FALSE,left,approach,pos,cake3_crop.jpg,4,31,TRUE,308,1,3239.6145,40,EAT                                    DON'T EAT,3238.9263,3218.7593,2987.6487,left,1,left,left,eat,eat,approach,pos,approach-pos,1,1,688.1999999997206
sub-040,310,3,TRUE,left,avoid,neg,fungus19_crop.jpg,4,31,TRUE,309,2,3241.7812,40,EAT                                    DON'T EAT,3240.9446,3218.7593,2987.6487,left,2,right,right,not_eat,not_eat,approach,pos,approach-pos,1,1,836.6000000000931
sub-040,311,3,FALSE,right,avoid,pos,meat27_crop.jpg,4,32,TRUE,310,2,3260.6711,40,EAT                                    DON'T EAT,3259.443,3255.423,2987.6487,left,2,right,right,not_eat,not_eat,avoid,pos,avoid-pos,1,1,1228.1000000000931
sub-040,312,3,FALSE,right,avoid,pos,meat12_crop.jpg,4,32,TRUE,311,2,3262.0962,40,EAT                                    DON'T EAT,3261.4614,3255.423,2987.6487,left,2,right,right,not_eat,not_eat,avoid,pos,avoid-pos,1,1,634.7999999998137
sub-040,313,3,FALSE,right,avoid,pos,meat21_crop.jpg,4,32,TRUE,312,2,3264.1577,40,EAT                                    DON'T EAT,3263.48,3255.423,2987.6487,left,2,right,right,not_eat,not_eat,avoid,pos,avoid-pos,1,1,677.7000000001863
sub-040,314,3,FALSE,right,avoid,pos,meat31_crop.jpg,4,32,TRUE,313,2,3266.0894,40,EAT                                    DON'T EAT,3265.498,3255.423,2987.6487,left,2,right,right,not_eat,not_eat,avoid,pos,avoid-pos,1,1,591.3999999999069
sub-040,315,3,TRUE,right,approach,pos,cake30_crop.jpg,4,32,TRUE,314,1,3268.3433,40,EAT                                    DON'T EAT,3267.5166,3255.423,2987.6487,left,1,left,left,eat,eat,avoid,pos,avoid-pos,1,1,826.6999999997206
sub-040,316,3,FALSE,right,avoid,pos,meat38_crop.jpg,4,32,TRUE,315,2,3270.5208,40,EAT                                    DON'T EAT,3269.5347,3255.423,2987.6487,left,2,right,right,not_eat,not_eat,avoid,pos,avoid-pos,1,1,986.0999999996275
sub-040,317,3,TRUE,right,approach,neg,insect36_crop.jpg,4,32,TRUE,316,1,3272.3123,40,EAT                                    DON'T EAT,3271.5532,3255.423,2987.6487,left,1,left,left,eat,eat,avoid,pos,avoid-pos,1,1,759.1000000005588
sub-040,318,3,FALSE,right,avoid,pos,meat29_crop.jpg,4,32,TRUE,317,2,3274.416,40,EAT                                    DON'T EAT,3273.5715,3255.423,2987.6487,left,2,right,right,not_eat,not_eat,avoid,pos,avoid-pos,1,1,844.5
sub-040,319,3,FALSE,right,avoid,pos,meat2_crop.jpg,4,32,TRUE,318,2,3276.237,40,EAT                                    DON'T EAT,3275.5898,3255.423,2987.6487,left,2,right,right,not_eat,not_eat,avoid,pos,avoid-pos,1,1,647.1999999997206
sub-040,320,3,FALSE,right,avoid,pos,meat24_crop.jpg,4,32,TRUE,319,2,3278.241,40,EAT                                    DON'T EAT,3277.6082,3255.423,2987.6487,left,2,right,right,not_eat,not_eat,avoid,pos,avoid-pos,1,1,632.7999999998137
