subject,trial_number,n_block,catch,hand,mot,val,stim_name,run_number,num_block,ran,order,response,time_of_response,subject_number,left_side_resp_label,trial_onset,blk_instr_onset,baseline_onset,response_hand,response_cleaned,response_lat,response_lat_cleaned,response_meaning,response_meaning_cleaned,condition_mot,condition_val,condition,correct,correct_cleaned,rt
sub-048,1,2,FALSE,right,avoid,neg,fungus14_crop.jpg,1,1,TRUE,0,2,1654.8887,48,EAT                                    DON'T EAT,1653.877,1649.8569,1639.2172,right,2,right,right,not_eat,not_eat,avoid,neg,avoid-neg,1,1,1011.6999999999534
sub-048,2,2,FALSE,right,avoid,neg,fungus4_crop.jpg,1,1,TRUE,1,2,1656.742,48,EAT                                    DON'T EAT,1655.8953,1649.8569,1639.2172,right,2,right,right,not_eat,not_eat,avoid,neg,avoid-neg,1,1,846.7000000001863
sub-048,3,2,TRUE,right,approach,neg,insect22_crop.jpg,1,1,TRUE,2,1,1658.9906,48,EAT                                    DON'T EAT,1657.9132,1649.8569,1639.2172,right,1,left,left,eat,eat,avoid,neg,avoid-neg,1,1,1077.4000000001397
sub-048,4,2,FALSE,right,avoid,neg,fungus32_crop.jpg,1,1,TRUE,3,2,1660.9028,48,EAT                                    DON'T EAT,1659.9346,1649.8569,1639.2172,right,2,right,right,not_eat,not_eat,avoid,neg,avoid-neg,1,1,968.1999999999534
sub-048,5,2,FALSE,right,avoid,neg,fungus13_crop.jpg,1,1,TRUE,4,2,1662.7549,48,EAT                                    DON'T EAT,1661.9521,1649.8569,1639.2172,right,2,right,right,not_eat,not_eat,avoid,neg,avoid-neg,1,1,802.8000000000466
sub-048,6,2,TRUE,right,approach,pos,cake18_crop.jpg,1,1,TRUE,5,1,1664.8278,48,EAT                                    DON'T EAT,1663.9686,1649.8569,1639.2172,right,1,left,left,eat,eat,avoid,neg,avoid-neg,1,1,859.2000000001863
sub-048,7,2,FALSE,right,avoid,neg,fungus17_crop.jpg,1,1,TRUE,6,2,1666.8254,48,EAT                                    DON'T EAT,1665.9869,1649.8569,1639.2172,right,2,right,right,not_eat,not_eat,avoid,neg,avoid-neg,1,1,838.4999999997672
sub-048,8,2,FALSE,right,avoid,neg,fungus10_crop.jpg,1,1,TRUE,7,2,1668.7845,48,EAT                                    DON'T EAT,1668.0052,1649.8569,1639.2172,right,2,right,right,not_eat,not_eat,avoid,neg,avoid-neg,1,1,779.3000000000466
sub-048,9,2,FALSE,right,avoid,neg,fungus31_crop.jpg,1,1,TRUE,8,2,1671.8823,48,EAT                                    DON'T EAT,1670.0232,1649.8569,1639.2172,right,2,right,right,not_eat,not_eat,avoid,neg,avoid-neg,1,1,1859.0999999998603
sub-048,10,2,FALSE,right,avoid,neg,fungus34_crop.jpg,1,1,TRUE,9,2,1672.901,48,EAT                                    DON'T EAT,1672.042,1649.8569,1639.2172,right,2,right,right,not_eat,not_eat,avoid,neg,avoid-neg,1,1,859
sub-048,11,2,FALSE,right,avoid,pos,meat32_crop.jpg,1,2,TRUE,10,2,1691.3173,48,EAT                                    DON'T EAT,1690.1732,1686.1537,1639.2172,right,2,right,right,not_eat,not_eat,avoid,pos,avoid-pos,1,1,1144.1000000000931
sub-048,12,2,FALSE,right,avoid,pos,meat22_crop.jpg,1,2,TRUE,11,2,1693.0702000000001,48,EAT                                    DON'T EAT,1692.192,1686.1537,1639.2172,right,2,right,right,not_eat,not_eat,avoid,pos,avoid-pos,1,1,878.2000000001863
sub-048,13,2,FALSE,right,avoid,pos,meat6_crop.jpg,1,2,TRUE,12,2,1695.2257,48,EAT                                    DON'T EAT,1694.2106,1686.1537,1639.2172,right,2,right,right,not_eat,not_eat,avoid,pos,avoid-pos,1,1,1015.0999999998603
sub-048,14,2,FALSE,right,avoid,pos,meat5_crop.jpg,1,2,TRUE,13,2,1697.0869,48,EAT                                    DON'T EAT,1696.2286,1686.1537,1639.2172,right,2,right,right,not_eat,not_eat,avoid,pos,avoid-pos,1,1,858.3000000000466
sub-048,15,2,FALSE,right,avoid,pos,meat31_crop.jpg,1,2,TRUE,14,2,1699.0483,48,EAT                                    DON'T EAT,1698.2466,1686.1537,1639.2172,right,2,right,right,not_eat,not_eat,avoid,pos,avoid-pos,1,1,801.6999999999534
sub-048,16,2,FALSE,right,avoid,pos,meat10_crop.jpg,1,2,TRUE,15,2,1701.0264,48,EAT                                    DON'T EAT,1700.2649,1686.1537,1639.2172,right,2,right,right,not_eat,not_eat,avoid,pos,avoid-pos,1,1,761.5
sub-048,17,2,FALSE,right,avoid,pos,meat38_crop.jpg,1,2,TRUE,16,2,1703.2783,48,EAT                                    DON'T EAT,1702.2839,1686.1537,1639.2172,right,2,right,right,not_eat,not_eat,avoid,pos,avoid-pos,1,1,994.4000000001397
sub-048,18,2,FALSE,right,avoid,pos,meat29_crop.jpg,1,2,TRUE,17,2,1705.3273,48,EAT                                    DON'T EAT,1704.3021,1686.1537,1639.2172,right,2,right,right,not_eat,not_eat,avoid,pos,avoid-pos,1,1,1025.1999999997206
sub-048,19,2,TRUE,right,approach,pos,cake2_crop.jpg,1,2,TRUE,18,1,1707.2307,48,EAT                                    DON'T EAT,1706.3206,1686.1537,1639.2172,right,1,left,left,eat,eat,avoid,pos,avoid-pos,1,1,910.1000000000931
sub-048,20,2,TRUE,right,approach,neg,insect36_crop.jpg,1,2,TRUE,19,1,1709.4021,48,EAT                                    DON'T EAT,1708.3389,1686.1537,1639.2172,right,1,left,left,eat,eat,avoid,pos,avoid-pos,1,1,1063.2000000001863
sub-048,21,3,TRUE,left,approach,pos,cake20_crop.jpg,1,3,TRUE,20,1,1729.7776,48,EAT                                    DON'T EAT,1728.2554,1724.235,1639.2172,right,1,left,left,eat,eat,avoid,neg,avoid-neg,1,1,1522.1999999999534
sub-048,22,3,FALSE,left,avoid,neg,fungus13_crop.jpg,1,3,TRUE,21,2,1731.1395,48,EAT                                    DON'T EAT,1730.2732,1724.235,1639.2172,right,2,right,right,not_eat,not_eat,avoid,neg,avoid-neg,1,1,866.2999999998137
sub-048,23,3,FALSE,left,avoid,neg,fungus40_crop.jpg,1,3,TRUE,22,2,1732.9722,48,EAT                                    DON'T EAT,1732.292,1724.235,1639.2172,right,2,right,right,not_eat,not_eat,avoid,neg,avoid-neg,1,1,680.1999999999534
sub-048,24,3,FALSE,left,avoid,neg,fungus29_crop.jpg,1,3,TRUE,23,2,1735.0598,48,EAT                                    DON'T EAT,1734.3103,1724.235,1639.2172,right,2,right,right,not_eat,not_eat,avoid,neg,avoid-neg,1,1,749.5
sub-048,25,3,TRUE,left,approach,neg,insect20_crop.jpg,1,3,TRUE,24,1,1737.4486,48,EAT                                    DON'T EAT,1736.3286,1724.235,1639.2172,right,1,left,left,eat,eat,avoid,neg,avoid-neg,1,1,1119.9999999997672
sub-048,26,3,FALSE,left,avoid,neg,fungus12_crop.jpg,1,3,TRUE,25,2,1739.2444,48,EAT                                    DON'T EAT,1738.3469,1724.235,1639.2172,right,2,right,right,not_eat,not_eat,avoid,neg,avoid-neg,1,1,897.5000000002328
sub-048,27,3,FALSE,left,avoid,neg,fungus34_crop.jpg,1,3,TRUE,26,2,1741.1064,48,EAT                                    DON'T EAT,1740.3651,1724.235,1639.2172,right,2,right,right,not_eat,not_eat,avoid,neg,avoid-neg,1,1,741.2999999998137
sub-048,28,3,FALSE,left,avoid,neg,fungus22_crop.jpg,1,3,TRUE,27,2,1743.0388,48,EAT                                    DON'T EAT,1742.3838,1724.235,1639.2172,right,2,right,right,not_eat,not_eat,avoid,neg,avoid-neg,1,1,655
sub-048,29,3,FALSE,left,avoid,neg,fungus23_crop.jpg,1,3,TRUE,28,2,1745.1628,48,EAT                                    DON'T EAT,1744.4021,1724.235,1639.2172,right,2,right,right,not_eat,not_eat,avoid,neg,avoid-neg,1,1,760.6999999999534
sub-048,30,3,FALSE,left,avoid,neg,fungus37_crop.jpg,1,3,TRUE,29,2,1747.2322,48,EAT                                    DON'T EAT,1746.4204,1724.235,1639.2172,right,2,right,right,not_eat,not_eat,avoid,neg,avoid-neg,1,1,811.8000000000466
sub-048,31,0,TRUE,left,approach,neg,insect22_crop.jpg,1,4,TRUE,30,1,1765.5338,48,EAT                                    DON'T EAT,1764.586,1760.5652,1639.2172,right,1,left,left,eat,eat,avoid,neg,avoid-neg,1,1,947.7999999998137
sub-048,32,0,FALSE,left,avoid,neg,fungus30_crop.jpg,1,4,TRUE,31,2,1767.4594,48,EAT                                    DON'T EAT,1766.6038,1760.5652,1639.2172,right,2,right,right,not_eat,not_eat,avoid,neg,avoid-neg,1,1,855.5999999998603
sub-048,33,0,FALSE,left,avoid,neg,fungus18_crop.jpg,1,4,TRUE,32,2,1769.4772,48,EAT                                    DON'T EAT,1768.6223,1760.5652,1639.2172,right,2,right,right,not_eat,not_eat,avoid,neg,avoid-neg,1,1,854.8999999999069
sub-048,34,0,TRUE,left,approach,pos,cake12_crop.jpg,1,4,TRUE,33,1,1771.4739,48,EAT                                    DON'T EAT,1770.6405,1760.5652,1639.2172,right,1,left,left,eat,eat,avoid,neg,avoid-neg,1,1,833.3999999999069
sub-048,35,0,FALSE,left,avoid,neg,fungus10_crop.jpg,1,4,TRUE,34,2,1773.3994,48,EAT                                    DON'T EAT,1772.6588,1760.5652,1639.2172,right,2,right,right,not_eat,not_eat,avoid,neg,avoid-neg,1,1,740.6000000000931
sub-048,36,0,FALSE,left,avoid,neg,fungus21_crop.jpg,1,4,TRUE,35,2,1775.3357,48,EAT                                    DON'T EAT,1774.6771,1760.5652,1639.2172,right,2,right,right,not_eat,not_eat,avoid,neg,avoid-neg,1,1,658.6000000000931
sub-048,37,0,FALSE,left,avoid,neg,fungus3_crop.jpg,1,4,TRUE,36,2,1777.7621,48,EAT                                    DON'T EAT,1776.6952000000001,1760.5652,1639.2172,right,2,right,right,not_eat,not_eat,avoid,neg,avoid-neg,1,1,1066.899999999674
sub-048,38,0,FALSE,left,avoid,neg,fungus17_crop.jpg,1,4,TRUE,37,2,1779.4978,48,EAT                                    DON'T EAT,1778.7137,1760.5652,1639.2172,right,2,right,right,not_eat,not_eat,avoid,neg,avoid-neg,1,1,784.1000000000931
sub-048,39,0,FALSE,left,avoid,neg,fungus8_crop.jpg,1,4,TRUE,38,2,1781.5787,48,EAT                                    DON'T EAT,1780.7322,1760.5652,1639.2172,right,2,right,right,not_eat,not_eat,avoid,neg,avoid-neg,1,1,846.5
sub-048,40,0,FALSE,left,avoid,neg,fungus28_crop.jpg,1,4,TRUE,39,2,1783.4805,48,EAT                                    DON'T EAT,1782.7505,1760.5652,1639.2172,right,2,right,right,not_eat,not_eat,avoid,neg,avoid-neg,1,1,730
sub-048,41,1,FALSE,right,avoid,neg,fungus30_crop.jpg,1,5,TRUE,40,2,1801.2355,48,EAT                                    DON'T EAT,1800.1812,1796.1615,1639.2172,right,2,right,right,not_eat,not_eat,avoid,neg,avoid-neg,1,1,1054.3000000000466
sub-048,42,1,FALSE,right,avoid,neg,fungus25_crop.jpg,1,5,TRUE,41,2,1802.938,48,EAT                                    DON'T EAT,1802.2,1796.1615,1639.2172,right,2,right,right,not_eat,not_eat,avoid,neg,avoid-neg,1,1,738
sub-048,43,1,TRUE,right,approach,neg,insect39_crop.jpg,1,5,TRUE,42,1,1805.0652,48,EAT                                    DON'T EAT,1804.2183,1796.1615,1639.2172,right,1,left,left,eat,eat,avoid,neg,avoid-neg,1,1,846.8999999999069
sub-048,44,1,FALSE,right,avoid,neg,fungus16_crop.jpg,1,5,TRUE,43,2,1806.9767,48,EAT                                    DON'T EAT,1806.2367,1796.1615,1639.2172,right,2,right,right,not_eat,not_eat,avoid,neg,avoid-neg,1,1,740
sub-048,45,1,FALSE,right,avoid,neg,fungus39_crop.jpg,1,5,TRUE,44,2,1809.1627,48,EAT                                    DON'T EAT,1808.255,1796.1615,1639.2172,right,2,right,right,not_eat,not_eat,avoid,neg,avoid-neg,1,1,907.7000000001863
sub-048,46,1,TRUE,right,approach,pos,cake25_crop.jpg,1,5,TRUE,45,1,1811.1593,48,EAT                                    DON'T EAT,1810.273,1796.1615,1639.2172,right,1,left,left,eat,eat,avoid,neg,avoid-neg,1,1,886.3000000000466
sub-048,47,1,FALSE,right,avoid,neg,fungus3_crop.jpg,1,5,TRUE,46,2,1813.0863,48,EAT                                    DON'T EAT,1812.2917,1796.1615,1639.2172,right,2,right,right,not_eat,not_eat,avoid,neg,avoid-neg,1,1,794.6000000000931
sub-048,48,1,FALSE,right,avoid,neg,fungus23_crop.jpg,1,5,TRUE,47,2,1814.9678,48,EAT                                    DON'T EAT,1814.3099,1796.1615,1639.2172,right,2,right,right,not_eat,not_eat,avoid,neg,avoid-neg,1,1,657.8999999999069
sub-048,49,1,FALSE,right,avoid,neg,fungus21_crop.jpg,1,5,TRUE,48,2,1817.048,48,EAT                                    DON'T EAT,1816.3284,1796.1615,1639.2172,right,2,right,right,not_eat,not_eat,avoid,neg,avoid-neg,1,1,719.5999999998603
sub-048,50,1,FALSE,right,avoid,neg,fungus26_crop.jpg,1,5,TRUE,49,2,1819.1854,48,EAT                                    DON'T EAT,1818.3469,1796.1615,1639.2172,right,2,right,right,not_eat,not_eat,avoid,neg,avoid-neg,1,1,838.5000000002328
sub-048,51,2,TRUE,right,avoid,neg,fungus9_crop.jpg,1,6,TRUE,50,2,1838.5524,48,EAT                                    DON'T EAT,1837.7626,1833.743,1639.2172,right,2,right,right,not_eat,not_eat,approach,neg,approach-neg,1,1,789.8000000000466
sub-048,52,2,FALSE,right,approach,neg,insect38_crop.jpg,1,6,TRUE,51,1,1840.415,48,EAT                                    DON'T EAT,1839.7812,1833.743,1639.2172,right,1,left,left,eat,eat,approach,neg,approach-neg,1,1,633.8000000000466
sub-048,53,2,FALSE,right,approach,neg,insect37_crop.jpg,1,6,TRUE,52,1,1842.4557,48,EAT                                    DON'T EAT,1841.7996,1833.743,1639.2172,right,1,left,left,eat,eat,approach,neg,approach-neg,1,1,656.0999999998603
sub-048,54,2,FALSE,right,approach,neg,insect14_crop.jpg,1,6,TRUE,53,1,1844.5164,48,EAT                                    DON'T EAT,1843.8179,1833.743,1639.2172,right,1,left,left,eat,eat,approach,neg,approach-neg,1,1,698.5
sub-048,55,2,TRUE,right,avoid,pos,meat26_crop.jpg,1,6,TRUE,54,2,1846.5239,48,EAT                                    DON'T EAT,1845.8363,1833.743,1639.2172,right,2,right,right,not_eat,not_eat,approach,neg,approach-neg,1,1,687.5999999998603
sub-048,56,2,FALSE,right,approach,neg,insect19_crop.jpg,1,6,TRUE,55,1,1848.5385,48,EAT                                    DON'T EAT,1847.8545,1833.743,1639.2172,right,1,left,left,eat,eat,approach,neg,approach-neg,1,1,684
sub-048,57,2,FALSE,right,approach,neg,insect18_crop.jpg,1,6,TRUE,56,1,1850.496,48,EAT                                    DON'T EAT,1849.873,1833.743,1639.2172,right,1,left,left,eat,eat,approach,neg,approach-neg,1,1,623
sub-048,58,2,FALSE,right,approach,neg,insect25_crop.jpg,1,6,TRUE,57,1,1852.5135,48,EAT                                    DON'T EAT,1851.8914,1833.743,1639.2172,right,1,left,left,eat,eat,approach,neg,approach-neg,1,1,622.1000000000931
sub-048,59,2,FALSE,right,approach,neg,insect13_crop.jpg,1,6,TRUE,58,1,1854.4628,48,EAT                                    DON'T EAT,1853.9097,1833.743,1639.2172,right,1,left,left,eat,eat,approach,neg,approach-neg,1,1,553.1000000000931
sub-048,60,2,FALSE,right,approach,neg,insect12_crop.jpg,1,6,TRUE,59,1,1856.5941,48,EAT                                    DON'T EAT,1855.9281,1833.743,1639.2172,right,1,left,left,eat,eat,approach,neg,approach-neg,1,1,666
sub-048,61,3,FALSE,right,avoid,pos,meat33_crop.jpg,1,7,TRUE,60,2,1874.706,48,EAT                                    DON'T EAT,1873.1757,1869.1555,1639.2172,right,2,right,right,not_eat,not_eat,avoid,pos,avoid-pos,1,1,1530.3000000000466
sub-048,62,3,TRUE,right,approach,neg,insect16_crop.jpg,1,7,TRUE,61,1,1875.9556,48,EAT                                    DON'T EAT,1875.194,1869.1555,1639.2172,right,1,left,left,eat,eat,avoid,pos,avoid-pos,1,1,761.6000000000931
sub-048,63,3,FALSE,right,avoid,pos,meat30_crop.jpg,1,7,TRUE,62,2,1877.9518,48,EAT                                    DON'T EAT,1877.2123,1869.1555,1639.2172,right,2,right,right,not_eat,not_eat,avoid,pos,avoid-pos,1,1,739.5000000002328
sub-048,64,3,FALSE,right,avoid,pos,meat23_crop.jpg,1,7,TRUE,63,2,1880.1146,48,EAT                                    DON'T EAT,1879.2307,1869.1555,1639.2172,right,2,right,right,not_eat,not_eat,avoid,pos,avoid-pos,1,1,883.8999999999069
sub-048,65,3,TRUE,right,approach,pos,cake11_crop.jpg,1,7,TRUE,64,1,1881.953,48,EAT                                    DON'T EAT,1881.2485,1869.1555,1639.2172,right,1,left,left,eat,eat,avoid,pos,avoid-pos,1,1,704.5
sub-048,66,3,FALSE,right,avoid,pos,meat4_crop.jpg,1,7,TRUE,65,2,1884.092,48,EAT                                    DON'T EAT,1883.2673,1869.1555,1639.2172,right,2,right,right,not_eat,not_eat,avoid,pos,avoid-pos,1,1,824.6999999999534
sub-048,67,3,FALSE,right,avoid,pos,meat7_crop.jpg,1,7,TRUE,66,2,1886.2777,48,EAT                                    DON'T EAT,1885.2856,1869.1555,1639.2172,right,2,right,right,not_eat,not_eat,avoid,pos,avoid-pos,1,1,992.100000000326
sub-048,68,3,FALSE,right,avoid,pos,meat39_crop.jpg,1,7,TRUE,67,2,1888.1096,48,EAT                                    DON'T EAT,1887.304,1869.1555,1639.2172,right,2,right,right,not_eat,not_eat,avoid,pos,avoid-pos,1,1,805.6000000000931
sub-048,69,3,FALSE,right,avoid,pos,meat25_crop.jpg,1,7,TRUE,68,2,1890.2323,48,EAT                                    DON'T EAT,1889.3226,1869.1555,1639.2172,right,2,right,right,not_eat,not_eat,avoid,pos,avoid-pos,1,1,909.6999999999534
sub-048,70,3,FALSE,right,avoid,pos,meat19_crop.jpg,1,7,TRUE,69,2,1892.5355,48,EAT                                    DON'T EAT,1891.3408,1869.1555,1639.2172,right,2,right,right,not_eat,not_eat,avoid,pos,avoid-pos,1,1,1194.6999999999534
sub-048,71,2,FALSE,left,avoid,neg,fungus24_crop.jpg,1,8,TRUE,70,2,1910.5447,48,EAT                                    DON'T EAT,1909.7557,1905.7356,1639.2172,right,2,right,right,not_eat,not_eat,avoid,neg,avoid-neg,1,1,789
sub-048,72,2,FALSE,left,avoid,neg,fungus26_crop.jpg,1,8,TRUE,71,2,1912.6621,48,EAT                                    DON'T EAT,1911.7744,1905.7356,1639.2172,right,2,right,right,not_eat,not_eat,avoid,neg,avoid-neg,1,1,887.7000000001863
sub-048,73,2,FALSE,left,avoid,neg,fungus16_crop.jpg,1,8,TRUE,72,2,1914.3333,48,EAT                                    DON'T EAT,1913.7927,1905.7356,1639.2172,right,2,right,right,not_eat,not_eat,avoid,neg,avoid-neg,1,1,540.6000000000931
sub-048,74,2,FALSE,left,avoid,neg,fungus27_crop.jpg,1,8,TRUE,73,2,1916.5104,48,EAT                                    DON'T EAT,1915.811,1905.7356,1639.2172,right,2,right,right,not_eat,not_eat,avoid,neg,avoid-neg,1,1,699.3999999999069
sub-048,75,2,TRUE,left,approach,neg,insect4_crop.jpg,1,8,TRUE,74,1,1918.5258,48,EAT                                    DON'T EAT,1917.8295,1905.7356,1639.2172,right,1,left,left,eat,eat,avoid,neg,avoid-neg,1,1,696.2999999998137
sub-048,76,2,FALSE,left,avoid,neg,fungus32_crop.jpg,1,8,TRUE,75,2,1920.5962,48,EAT                                    DON'T EAT,1919.8478,1905.7356,1639.2172,right,2,right,right,not_eat,not_eat,avoid,neg,avoid-neg,1,1,748.3999999999069
sub-048,77,2,FALSE,left,avoid,neg,fungus7_crop.jpg,1,8,TRUE,76,2,1922.6061,48,EAT                                    DON'T EAT,1921.8658,1905.7356,1639.2172,right,2,right,right,not_eat,not_eat,avoid,neg,avoid-neg,1,1,740.2999999998137
sub-048,78,2,FALSE,left,avoid,neg,fungus11_crop.jpg,1,8,TRUE,77,2,1924.6301,48,EAT                                    DON'T EAT,1923.8844,1905.7356,1639.2172,right,2,right,right,not_eat,not_eat,avoid,neg,avoid-neg,1,1,745.7000000001863
sub-048,79,2,FALSE,left,avoid,neg,fungus1_crop.jpg,1,8,TRUE,78,2,1926.745,48,EAT                                    DON'T EAT,1925.9031,1905.7356,1639.2172,right,2,right,right,not_eat,not_eat,avoid,neg,avoid-neg,1,1,841.8999999999069
sub-048,80,2,TRUE,left,approach,pos,cake39_crop.jpg,1,8,TRUE,79,1,1928.7563,48,EAT                                    DON'T EAT,1927.9211,1905.7356,1639.2172,right,1,left,left,eat,eat,avoid,neg,avoid-neg,1,1,835.1999999999534
sub-048,81,3,FALSE,left,approach,pos,cake17_crop.jpg,2,9,TRUE,80,1,2165.7368,48,EAT                                    DON'T EAT,2164.9346,2160.9143,2150.0122,left,1,left,left,eat,eat,approach,pos,approach-pos,1,1,802.2000000001863
sub-048,82,3,FALSE,left,approach,pos,cake31_crop.jpg,2,9,TRUE,81,1,2167.5874,48,EAT                                    DON'T EAT,2166.953,2160.9143,2150.0122,left,1,left,left,eat,eat,approach,pos,approach-pos,1,1,634.3999999999069
sub-048,83,3,FALSE,left,approach,pos,cake13_crop.jpg,2,9,TRUE,82,1,2169.5735,48,EAT                                    DON'T EAT,2168.9714,2160.9143,2150.0122,left,1,left,left,eat,eat,approach,pos,approach-pos,1,1,602.1000000000931
sub-048,84,3,TRUE,left,avoid,neg,fungus38_crop.jpg,2,9,TRUE,83,2,2171.8665,48,EAT                                    DON'T EAT,2170.9897,2160.9143,2150.0122,left,2,right,right,not_eat,not_eat,approach,pos,approach-pos,1,1,876.7999999998137
sub-048,85,3,FALSE,left,approach,pos,cake27_crop.jpg,2,9,TRUE,84,1,2173.7283,48,EAT                                    DON'T EAT,2173.008,2160.9143,2150.0122,left,1,left,left,eat,eat,approach,pos,approach-pos,1,1,720.3000000002794
sub-048,86,3,FALSE,left,approach,pos,cake33_crop.jpg,2,9,TRUE,85,1,2175.7651,48,EAT                                    DON'T EAT,2175.0261,2160.9143,2150.0122,left,1,left,left,eat,eat,approach,pos,approach-pos,1,1,739
sub-048,87,3,FALSE,left,approach,pos,cake23_crop.jpg,2,9,TRUE,86,1,2177.7188,48,EAT                                    DON'T EAT,2177.0444,2160.9143,2150.0122,left,1,left,left,eat,eat,approach,pos,approach-pos,1,1,674.3999999999069
sub-048,88,3,FALSE,left,approach,pos,cake11_crop.jpg,2,9,TRUE,87,1,2179.7068,48,EAT                                    DON'T EAT,2179.063,2160.9143,2150.0122,left,1,left,left,eat,eat,approach,pos,approach-pos,1,1,643.7999999998137
sub-048,89,3,TRUE,left,avoid,pos,meat33_crop.jpg,2,9,TRUE,88,2,2181.9355,48,EAT                                    DON'T EAT,2181.0813,2160.9143,2150.0122,left,2,right,right,not_eat,not_eat,approach,pos,approach-pos,1,1,854.2000000001863
sub-048,90,3,FALSE,left,approach,pos,cake32_crop.jpg,2,9,TRUE,89,1,2184.54,48,EAT                                    DON'T EAT,2183.0996,2160.9143,2150.0122,left,1,left,left,eat,eat,approach,pos,approach-pos,1,1,1440.3999999999069
sub-048,91,0,FALSE,right,avoid,neg,fungus6_crop.jpg,2,10,TRUE,90,2,2200.7004,48,EAT                                    DON'T EAT,2199.9304,2195.9104,2150.0122,left,2,right,right,not_eat,not_eat,avoid,neg,avoid-neg,1,1,770
sub-048,92,0,FALSE,right,avoid,neg,fungus2_crop.jpg,2,10,TRUE,91,2,2202.5386,48,EAT                                    DON'T EAT,2201.9487,2195.9104,2150.0122,left,2,right,right,not_eat,not_eat,avoid,neg,avoid-neg,1,1,589.8999999999069
sub-048,93,0,FALSE,right,avoid,neg,fungus12_crop.jpg,2,10,TRUE,92,2,2204.4849,48,EAT                                    DON'T EAT,2203.967,2195.9104,2150.0122,left,2,right,right,not_eat,not_eat,avoid,neg,avoid-neg,1,1,517.8999999999069
sub-048,94,0,FALSE,right,avoid,neg,fungus24_crop.jpg,2,10,TRUE,93,2,2206.5356,48,EAT                                    DON'T EAT,2205.9854,2195.9104,2150.0122,left,2,right,right,not_eat,not_eat,avoid,neg,avoid-neg,1,1,550.2000000001863
sub-048,95,0,FALSE,right,avoid,neg,fungus22_crop.jpg,2,10,TRUE,94,2,2208.8896,48,EAT                                    DON'T EAT,2208.0037,2195.9104,2150.0122,left,2,right,right,not_eat,not_eat,avoid,neg,avoid-neg,1,1,885.8999999999069
sub-048,96,0,TRUE,right,approach,pos,cake3_crop.jpg,2,10,TRUE,95,1,2210.7805,48,EAT                                    DON'T EAT,2210.022,2195.9104,2150.0122,left,1,left,left,eat,eat,avoid,neg,avoid-neg,1,1,758.5
sub-048,97,0,FALSE,right,avoid,neg,fungus1_crop.jpg,2,10,TRUE,96,2,2213.129,48,EAT                                    DON'T EAT,2212.0403,2195.9104,2150.0122,left,2,right,right,not_eat,not_eat,avoid,neg,avoid-neg,1,1,1088.6999999997206
sub-048,98,0,TRUE,right,approach,neg,insect9_crop.jpg,2,10,TRUE,97,1,2214.88,48,EAT                                    DON'T EAT,2214.0588,2195.9104,2150.0122,left,1,left,left,eat,eat,avoid,neg,avoid-neg,1,1,821.2000000001863
sub-048,99,0,FALSE,right,avoid,neg,fungus11_crop.jpg,2,10,TRUE,98,2,2216.7126,48,EAT                                    DON'T EAT,2216.077,2195.9104,2150.0122,left,2,right,right,not_eat,not_eat,avoid,neg,avoid-neg,1,1,635.5999999996275
sub-048,100,0,FALSE,right,avoid,neg,fungus36_crop.jpg,2,10,TRUE,99,2,2219.0103,48,EAT                                    DON'T EAT,2218.0955,2195.9104,2150.0122,left,2,right,right,not_eat,not_eat,avoid,neg,avoid-neg,1,1,914.7999999998137
sub-048,101,3,TRUE,left,approach,neg,insect18_crop.jpg,2,11,TRUE,100,1,2236.1177,48,EAT                                    DON'T EAT,2235.3765,2231.3564,2150.0122,left,1,left,left,eat,eat,avoid,pos,avoid-pos,1,1,741.1999999997206
sub-048,102,3,FALSE,left,avoid,pos,meat37_crop.jpg,2,11,TRUE,101,2,2238.0784,48,EAT                                    DON'T EAT,2237.3948,2231.3564,2150.0122,left,2,right,right,not_eat,not_eat,avoid,pos,avoid-pos,1,1,683.6000000000931
sub-048,103,3,FALSE,left,avoid,pos,meat13_crop.jpg,2,11,TRUE,102,2,2240.549,48,EAT                                    DON'T EAT,2239.413,2231.3564,2150.0122,left,2,right,right,not_eat,not_eat,avoid,pos,avoid-pos,1,1,1136
sub-048,104,3,TRUE,left,approach,pos,cake29_crop.jpg,2,11,TRUE,103,1,2242.2864,48,EAT                                    DON'T EAT,2241.4314,2231.3564,2150.0122,left,1,left,left,eat,eat,avoid,pos,avoid-pos,1,1,855
sub-048,105,3,FALSE,left,avoid,pos,meat40_crop.jpg,2,11,TRUE,104,2,2244.2202,48,EAT                                    DON'T EAT,2243.4497,2231.3564,2150.0122,left,2,right,right,not_eat,not_eat,avoid,pos,avoid-pos,1,1,770.5
sub-048,106,3,FALSE,left,avoid,pos,meat25_crop.jpg,2,11,TRUE,105,2,2246.6648,48,EAT                                    DON'T EAT,2245.468,2231.3564,2150.0122,left,2,right,right,not_eat,not_eat,avoid,pos,avoid-pos,1,1,1196.7999999998137
sub-048,107,3,FALSE,left,avoid,pos,meat16_crop.jpg,2,11,TRUE,106,2,2248.2915,48,EAT                                    DON'T EAT,2247.4866,2231.3564,2150.0122,left,2,right,right,not_eat,not_eat,avoid,pos,avoid-pos,1,1,804.8999999999069
sub-048,108,3,FALSE,left,avoid,pos,meat12_crop.jpg,2,11,TRUE,107,2,2250.3586,48,EAT                                    DON'T EAT,2249.5044,2231.3564,2150.0122,left,2,right,right,not_eat,not_eat,avoid,pos,avoid-pos,1,1,854.2000000001863
sub-048,109,3,FALSE,left,avoid,pos,meat30_crop.jpg,2,11,TRUE,108,2,2252.1882,48,EAT                                    DON'T EAT,2251.5232,2231.3564,2150.0122,left,2,right,right,not_eat,not_eat,avoid,pos,avoid-pos,1,1,665
sub-048,110,3,FALSE,left,avoid,pos,meat22_crop.jpg,2,11,TRUE,109,2,2254.2087,48,EAT                                    DON'T EAT,2253.5415,2231.3564,2150.0122,left,2,right,right,not_eat,not_eat,avoid,pos,avoid-pos,1,1,667.2000000001863
sub-048,111,3,FALSE,left,approach,neg,insect26_crop.jpg,2,12,TRUE,110,1,2271.3374,48,EAT                                    DON'T EAT,2270.072,2266.052,2150.0122,left,1,left,left,eat,eat,approach,neg,approach-neg,1,1,1265.3999999999069
sub-048,112,3,FALSE,left,approach,neg,insect39_crop.jpg,2,12,TRUE,111,1,2272.8186,48,EAT                                    DON'T EAT,2272.0903,2266.052,2150.0122,left,1,left,left,eat,eat,approach,neg,approach-neg,1,1,728.3000000002794
sub-048,113,3,FALSE,left,approach,neg,insect27_crop.jpg,2,12,TRUE,112,1,2275.0469,48,EAT                                    DON'T EAT,2274.1086,2266.052,2150.0122,left,1,left,left,eat,eat,approach,neg,approach-neg,1,1,938.2999999998137
sub-048,114,3,TRUE,left,avoid,neg,fungus2_crop.jpg,2,12,TRUE,113,2,2277.363,48,EAT                                    DON'T EAT,2276.127,2266.052,2150.0122,left,2,right,right,not_eat,not_eat,approach,neg,approach-neg,1,1,1236
sub-048,115,3,FALSE,left,approach,neg,insect1_crop.jpg,2,12,TRUE,114,1,2278.9775,48,EAT                                    DON'T EAT,2278.145,2266.052,2150.0122,left,1,left,left,eat,eat,approach,neg,approach-neg,1,1,832.5
sub-048,116,3,FALSE,left,approach,neg,insect14_crop.jpg,2,12,TRUE,115,1,2280.8684,48,EAT                                    DON'T EAT,2280.163,2266.052,2150.0122,left,1,left,left,eat,eat,approach,neg,approach-neg,1,1,705.3999999999069
sub-048,117,3,TRUE,left,avoid,pos,meat27_crop.jpg,2,12,TRUE,116,2,2282.8982,48,EAT                                    DON'T EAT,2282.182,2266.052,2150.0122,left,2,right,right,not_eat,not_eat,approach,neg,approach-neg,1,1,716.2000000001863
sub-048,118,3,FALSE,left,approach,neg,insect24_crop.jpg,2,12,TRUE,117,1,2285.3745,48,EAT                                    DON'T EAT,2284.2004,2266.052,2150.0122,left,1,left,left,eat,eat,approach,neg,approach-neg,1,1,1174.0999999996275
sub-048,119,3,FALSE,left,approach,neg,insect8_crop.jpg,2,12,TRUE,118,1,2286.9358,48,EAT                                    DON'T EAT,2286.2188,2266.052,2150.0122,left,1,left,left,eat,eat,approach,neg,approach-neg,1,1,717
sub-048,120,3,FALSE,left,approach,neg,insect31_crop.jpg,2,12,TRUE,119,1,2288.9617,48,EAT                                    DON'T EAT,2288.237,2266.052,2150.0122,left,1,left,left,eat,eat,approach,neg,approach-neg,1,1,724.6999999997206
sub-048,121,0,FALSE,right,avoid,pos,meat40_crop.jpg,2,13,TRUE,120,2,2306.97,48,EAT                                    DON'T EAT,2306.0518,2302.0317,2150.0122,left,2,right,right,not_eat,not_eat,avoid,pos,avoid-pos,1,1,918.1999999997206
sub-048,122,0,FALSE,right,avoid,pos,meat1_crop.jpg,2,13,TRUE,121,2,2308.8254,48,EAT                                    DON'T EAT,2308.07,2302.0317,2150.0122,left,2,right,right,not_eat,not_eat,avoid,pos,avoid-pos,1,1,755.4000000003725
sub-048,123,0,FALSE,right,avoid,pos,meat14_crop.jpg,2,13,TRUE,122,2,2310.663,48,EAT                                    DON'T EAT,2310.0884,2302.0317,2150.0122,left,2,right,right,not_eat,not_eat,avoid,pos,avoid-pos,1,1,574.6000000000931
sub-048,124,0,FALSE,right,avoid,pos,meat8_crop.jpg,2,13,TRUE,123,2,2312.7673,48,EAT                                    DON'T EAT,2312.107,2302.0317,2150.0122,left,2,right,right,not_eat,not_eat,avoid,pos,avoid-pos,1,1,660.2999999998137
sub-048,125,0,FALSE,right,avoid,pos,meat13_crop.jpg,2,13,TRUE,124,2,2314.7683,48,EAT                                    DON'T EAT,2314.125,2302.0317,2150.0122,left,2,right,right,not_eat,not_eat,avoid,pos,avoid-pos,1,1,643.3000000002794
sub-048,126,0,FALSE,right,avoid,pos,meat16_crop.jpg,2,13,TRUE,125,2,2316.8396,48,EAT                                    DON'T EAT,2316.143,2302.0317,2150.0122,left,2,right,right,not_eat,not_eat,avoid,pos,avoid-pos,1,1,696.5999999996275
sub-048,127,0,FALSE,right,avoid,pos,meat21_crop.jpg,2,13,TRUE,126,2,2318.8616,48,EAT                                    DON'T EAT,2318.1619,2302.0317,2150.0122,left,2,right,right,not_eat,not_eat,avoid,pos,avoid-pos,1,1,699.7000000001863
sub-048,128,0,TRUE,right,approach,neg,insect2_crop.jpg,2,13,TRUE,127,1,2321.0767,48,EAT                                    DON'T EAT,2320.1804,2302.0317,2150.0122,left,1,left,left,eat,eat,avoid,pos,avoid-pos,1,1,896.2999999998137
sub-048,129,0,FALSE,right,avoid,pos,meat24_crop.jpg,2,13,TRUE,128,2,2322.9158,48,EAT                                    DON'T EAT,2322.1985,2302.0317,2150.0122,left,2,right,right,not_eat,not_eat,avoid,pos,avoid-pos,1,1,717.3000000002794
sub-048,130,0,TRUE,right,approach,pos,cake12_crop.jpg,2,13,TRUE,129,1,2325.1968,48,EAT                                    DON'T EAT,2324.2166,2302.0317,2150.0122,left,1,left,left,eat,eat,avoid,pos,avoid-pos,1,1,980.2000000001863
sub-048,131,0,FALSE,left,approach,pos,cake1_crop.jpg,2,14,TRUE,130,1,2342.4917,48,EAT                                    DON'T EAT,2341.7312,2337.7114,2150.0122,left,1,left,left,eat,eat,approach,pos,approach-pos,1,1,760.5
sub-048,132,0,FALSE,left,approach,pos,cake4_crop.jpg,2,14,TRUE,131,1,2344.4673,48,EAT                                    DON'T EAT,2343.7498,2337.7114,2150.0122,left,1,left,left,eat,eat,approach,pos,approach-pos,1,1,717.4999999995343
sub-048,133,0,TRUE,left,avoid,pos,meat2_crop.jpg,2,14,TRUE,132,2,2347.194,48,EAT                                    DON'T EAT,2345.768,2337.7114,2150.0122,left,2,right,right,not_eat,not_eat,approach,pos,approach-pos,1,1,1426
sub-048,134,0,FALSE,left,approach,pos,cake5_crop.jpg,2,14,TRUE,133,1,2348.5278,48,EAT                                    DON'T EAT,2347.7864,2337.7114,2150.0122,left,1,left,left,eat,eat,approach,pos,approach-pos,1,1,741.3999999999069
sub-048,135,0,FALSE,left,approach,pos,cake18_crop.jpg,2,14,TRUE,134,1,2350.5588,48,EAT                                    DON'T EAT,2349.8047,2337.7114,2150.0122,left,1,left,left,eat,eat,approach,pos,approach-pos,1,1,754.0999999996275
sub-048,136,0,FALSE,left,approach,pos,cake3_crop.jpg,2,14,TRUE,135,1,2352.403,48,EAT                                    DON'T EAT,2351.8232,2337.7114,2150.0122,left,1,left,left,eat,eat,approach,pos,approach-pos,1,1,579.8000000002794
sub-048,137,0,TRUE,left,avoid,neg,fungus15_crop.jpg,2,14,TRUE,136,2,2354.5063,48,EAT                                    DON'T EAT,2353.8416,2337.7114,2150.0122,left,2,right,right,not_eat,not_eat,approach,pos,approach-pos,1,1,664.6999999997206
sub-048,138,0,FALSE,left,approach,pos,cake16_crop.jpg,2,14,TRUE,137,1,2356.823,48,EAT                                    DON'T EAT,2355.8596,2337.7114,2150.0122,left,1,left,left,eat,eat,approach,pos,approach-pos,1,1,963.4000000003725
sub-048,139,0,FALSE,left,approach,pos,cake38_crop.jpg,2,14,TRUE,138,1,2358.6704,48,EAT                                    DON'T EAT,2357.8782,2337.7114,2150.0122,left,1,left,left,eat,eat,approach,pos,approach-pos,1,1,792.1999999997206
sub-048,140,0,FALSE,left,approach,pos,cake14_crop.jpg,2,14,TRUE,139,1,2360.608,48,EAT                                    DON'T EAT,2359.8965,2337.7114,2150.0122,left,1,left,left,eat,eat,approach,pos,approach-pos,1,1,711.5
sub-048,141,0,FALSE,right,approach,pos,cake14_crop.jpg,2,15,TRUE,140,1,2377.8926,48,EAT                                    DON'T EAT,2377.0442,2373.0237,2150.0122,left,1,left,left,eat,eat,approach,pos,approach-pos,1,1,848.4000000003725
sub-048,142,0,FALSE,right,approach,pos,cake6_crop.jpg,2,15,TRUE,141,1,2379.9255,48,EAT                                    DON'T EAT,2379.0625,2373.0237,2150.0122,left,1,left,left,eat,eat,approach,pos,approach-pos,1,1,863
sub-048,143,0,FALSE,right,approach,pos,cake32_crop.jpg,2,15,TRUE,142,1,2381.8857,48,EAT                                    DON'T EAT,2381.0808,2373.0237,2150.0122,left,1,left,left,eat,eat,approach,pos,approach-pos,1,1,804.8999999994412
sub-048,144,0,FALSE,right,approach,pos,cake1_crop.jpg,2,15,TRUE,143,1,2383.6682,48,EAT                                    DON'T EAT,2383.099,2373.0237,2150.0122,left,1,left,left,eat,eat,approach,pos,approach-pos,1,1,569.2000000001863
sub-048,145,0,TRUE,right,avoid,pos,meat34_crop.jpg,2,15,TRUE,144,2,2385.9238,48,EAT                                    DON'T EAT,2385.1174,2373.0237,2150.0122,left,2,right,right,not_eat,not_eat,approach,pos,approach-pos,1,1,806.3999999999069
sub-048,146,0,FALSE,right,approach,pos,cake27_crop.jpg,2,15,TRUE,145,1,2387.8618,48,EAT                                    DON'T EAT,2387.1357,2373.0237,2150.0122,left,1,left,left,eat,eat,approach,pos,approach-pos,1,1,726.1000000005588
sub-048,147,0,FALSE,right,approach,pos,cake21_crop.jpg,2,15,TRUE,146,1,2389.9436,48,EAT                                    DON'T EAT,2389.154,2373.0237,2150.0122,left,1,left,left,eat,eat,approach,pos,approach-pos,1,1,789.6000000000931
sub-048,148,0,TRUE,right,avoid,neg,fungus18_crop.jpg,2,15,TRUE,147,2,2391.9844,48,EAT                                    DON'T EAT,2391.1726,2373.0237,2150.0122,left,2,right,right,not_eat,not_eat,approach,pos,approach-pos,1,1,811.7999999998137
sub-048,149,0,FALSE,right,approach,pos,cake26_crop.jpg,2,15,TRUE,148,1,2393.9924,48,EAT                                    DON'T EAT,2393.191,2373.0237,2150.0122,left,1,left,left,eat,eat,approach,pos,approach-pos,1,1,801.3999999999069
sub-048,150,0,FALSE,right,approach,pos,cake38_crop.jpg,2,15,TRUE,149,1,2395.739,48,EAT                                    DON'T EAT,2395.2092,2373.0237,2150.0122,left,1,left,left,eat,eat,approach,pos,approach-pos,1,1,529.8000000002794
sub-048,151,3,FALSE,right,approach,neg,insect28_crop.jpg,2,16,TRUE,150,1,2413.1838,48,EAT                                    DON'T EAT,2412.0564,2408.0364,2150.0122,left,1,left,left,eat,eat,approach,neg,approach-neg,1,1,1127.3999999999069
sub-048,152,3,FALSE,right,approach,neg,insect27_crop.jpg,2,16,TRUE,151,1,2414.675,48,EAT                                    DON'T EAT,2414.0745,2408.0364,2150.0122,left,1,left,left,eat,eat,approach,neg,approach-neg,1,1,600.5
sub-048,153,3,TRUE,right,avoid,pos,meat27_crop.jpg,2,16,TRUE,152,2,2416.736,48,EAT                                    DON'T EAT,2416.093,2408.0364,2150.0122,left,2,right,right,not_eat,not_eat,approach,neg,approach-neg,1,1,643
sub-048,154,3,FALSE,right,approach,neg,insect31_crop.jpg,2,16,TRUE,153,1,2418.734,48,EAT                                    DON'T EAT,2418.1116,2408.0364,2150.0122,left,1,left,left,eat,eat,approach,neg,approach-neg,1,1,622.3999999999069
sub-048,155,3,FALSE,right,approach,neg,insect33_crop.jpg,2,16,TRUE,154,1,2421.145,48,EAT                                    DON'T EAT,2420.13,2408.0364,2150.0122,left,1,left,left,eat,eat,approach,neg,approach-neg,1,1,1015
sub-048,156,3,FALSE,right,approach,neg,insect8_crop.jpg,2,16,TRUE,155,1,2422.7603,48,EAT                                    DON'T EAT,2422.1482,2408.0364,2150.0122,left,1,left,left,eat,eat,approach,neg,approach-neg,1,1,612.0999999996275
sub-048,157,3,FALSE,right,approach,neg,insect1_crop.jpg,2,16,TRUE,156,1,2425.063,48,EAT                                    DON'T EAT,2424.1665,2408.0364,2150.0122,left,1,left,left,eat,eat,approach,neg,approach-neg,1,1,896.5
sub-048,158,3,TRUE,right,avoid,neg,fungus28_crop.jpg,2,16,TRUE,157,2,2427.1157,48,EAT                                    DON'T EAT,2426.1846,2408.0364,2150.0122,left,2,right,right,not_eat,not_eat,approach,neg,approach-neg,1,1,931.0999999996275
sub-048,159,3,FALSE,right,approach,neg,insect5_crop.jpg,2,16,TRUE,158,1,2429.0364,48,EAT                                    DON'T EAT,2428.2031,2408.0364,2150.0122,left,1,left,left,eat,eat,approach,neg,approach-neg,1,1,833.2999999998137
sub-048,160,3,FALSE,right,approach,neg,insect40_crop.jpg,2,16,TRUE,159,1,2431.0159,48,EAT                                    DON'T EAT,2430.2217,2408.0364,2150.0122,left,1,left,left,eat,eat,approach,neg,approach-neg,1,1,794.1999999997206
sub-048,161,1,TRUE,right,avoid,neg,fungus33_crop.jpg,3,17,TRUE,160,2,2532.3342,48,EAT                                    DON'T EAT,2531.4224,2527.402,2514.8982,right,2,right,right,not_eat,not_eat,approach,neg,approach-neg,1,1,911.7999999998137
sub-048,162,1,TRUE,right,avoid,pos,meat37_crop.jpg,3,17,TRUE,161,2,2534.2427,48,EAT                                    DON'T EAT,2533.4407,2527.402,2514.8982,right,2,right,right,not_eat,not_eat,approach,neg,approach-neg,1,1,801.9999999995343
sub-048,163,1,FALSE,right,approach,neg,insect4_crop.jpg,3,17,TRUE,162,1,2536.2393,48,EAT                                    DON'T EAT,2535.459,2527.402,2514.8982,right,1,left,left,eat,eat,approach,neg,approach-neg,1,1,780.3000000002794
sub-048,164,1,FALSE,right,approach,neg,insect15_crop.jpg,3,17,TRUE,163,1,2538.068,48,EAT                                    DON'T EAT,2537.4773,2527.402,2514.8982,right,1,left,left,eat,eat,approach,neg,approach-neg,1,1,590.7000000001863
sub-048,165,1,FALSE,right,approach,neg,insect10_crop.jpg,3,17,TRUE,164,1,2540.055,48,EAT                                    DON'T EAT,2539.4956,2527.402,2514.8982,right,1,left,left,eat,eat,approach,neg,approach-neg,1,1,559.3999999999069
sub-048,166,1,FALSE,right,approach,neg,insect6_crop.jpg,3,17,TRUE,165,1,2542.0122,48,EAT                                    DON'T EAT,2541.514,2527.402,2514.8982,right,1,left,left,eat,eat,approach,neg,approach-neg,1,1,498.20000000018626
sub-048,167,1,FALSE,right,approach,neg,insect20_crop.jpg,3,17,TRUE,166,1,2544.1763,48,EAT                                    DON'T EAT,2543.5325,2527.402,2514.8982,right,1,left,left,eat,eat,approach,neg,approach-neg,1,1,643.8000000002794
sub-048,168,1,FALSE,right,approach,neg,insect30_crop.jpg,3,17,TRUE,167,1,2546.0686,48,EAT                                    DON'T EAT,2545.5508,2527.402,2514.8982,right,1,left,left,eat,eat,approach,neg,approach-neg,1,1,517.8000000002794
sub-048,169,1,FALSE,right,approach,neg,insect17_crop.jpg,3,17,TRUE,168,1,2548.172,48,EAT                                    DON'T EAT,2547.5688,2527.402,2514.8982,right,1,left,left,eat,eat,approach,neg,approach-neg,1,1,603.2000000001863
sub-048,170,1,FALSE,right,approach,neg,insect21_crop.jpg,3,17,TRUE,169,1,2550.434,48,EAT                                    DON'T EAT,2549.587,2527.402,2514.8982,right,1,left,left,eat,eat,approach,neg,approach-neg,1,1,847
sub-048,171,2,FALSE,left,avoid,pos,meat10_crop.jpg,3,18,TRUE,170,1,2567.849,48,EAT                                    DON'T EAT,2566.835,2562.815,2514.8982,right,1,left,left,eat,eat,avoid,pos,avoid-pos,0,0,1014
sub-048,172,2,FALSE,left,avoid,pos,meat8_crop.jpg,3,18,TRUE,171,2,2569.7188,48,EAT                                    DON'T EAT,2568.8533,2562.815,2514.8982,right,2,right,right,not_eat,not_eat,avoid,pos,avoid-pos,1,1,865.5
sub-048,173,2,TRUE,left,approach,neg,insect29_crop.jpg,3,18,TRUE,172,1,2571.935,48,EAT                                    DON'T EAT,2570.8713,2562.815,2514.8982,right,1,left,left,eat,eat,avoid,pos,avoid-pos,1,1,1063.7000000001863
sub-048,174,2,FALSE,left,avoid,pos,meat11_crop.jpg,3,18,TRUE,173,2,2573.6404000000002,48,EAT                                    DON'T EAT,2572.8901,2562.815,2514.8982,right,2,right,right,not_eat,not_eat,avoid,pos,avoid-pos,1,1,750.3000000002794
sub-048,175,2,FALSE,left,avoid,pos,meat24_crop.jpg,3,18,TRUE,174,2,2575.662,48,EAT                                    DON'T EAT,2574.9084,2562.815,2514.8982,right,2,right,right,not_eat,not_eat,avoid,pos,avoid-pos,1,1,753.6000000000931
sub-048,176,2,TRUE,left,approach,pos,cake40_crop.jpg,3,18,TRUE,175,1,2578.229,48,EAT                                    DON'T EAT,2576.9268,2562.815,2514.8982,right,1,left,left,eat,eat,avoid,pos,avoid-pos,1,1,1302.1999999997206
sub-048,177,2,FALSE,left,avoid,pos,meat38_crop.jpg,3,18,TRUE,176,2,2579.636,48,EAT                                    DON'T EAT,2578.945,2562.815,2514.8982,right,2,right,right,not_eat,not_eat,avoid,pos,avoid-pos,1,1,691
sub-048,178,2,FALSE,left,avoid,pos,meat7_crop.jpg,3,18,TRUE,177,2,2581.7668,48,EAT                                    DON'T EAT,2580.963,2562.815,2514.8982,right,2,right,right,not_eat,not_eat,avoid,pos,avoid-pos,1,1,803.7999999998137
sub-048,179,2,FALSE,left,avoid,pos,meat23_crop.jpg,3,18,TRUE,178,2,2583.488,48,EAT                                    DON'T EAT,2582.9817,2562.815,2514.8982,right,2,right,right,not_eat,not_eat,avoid,pos,avoid-pos,1,1,506.3000000002794
sub-048,180,2,FALSE,left,avoid,pos,meat20_crop.jpg,3,18,TRUE,179,2,2585.5596,48,EAT                                    DON'T EAT,2585.0002,2562.815,2514.8982,right,2,right,right,not_eat,not_eat,avoid,pos,avoid-pos,1,1,559.4000000003725
sub-048,181,1,FALSE,left,approach,neg,insect11_crop.jpg,3,19,TRUE,180,1,2602.9163,48,EAT                                    DON'T EAT,2602.2642,2598.2444,2514.8982,right,1,left,left,eat,eat,approach,neg,approach-neg,1,1,652.0999999996275
sub-048,182,1,FALSE,left,approach,neg,insect6_crop.jpg,3,19,TRUE,181,1,2604.9802,48,EAT                                    DON'T EAT,2604.2827,2598.2444,2514.8982,right,1,left,left,eat,eat,approach,neg,approach-neg,1,1,697.5
sub-048,183,1,FALSE,left,approach,neg,insect37_crop.jpg,3,19,TRUE,182,1,2606.987,48,EAT                                    DON'T EAT,2606.3013,2598.2444,2514.8982,right,1,left,left,eat,eat,approach,neg,approach-neg,1,1,685.6999999997206
sub-048,184,1,TRUE,left,avoid,pos,meat18_crop.jpg,3,19,TRUE,183,2,2608.9846,48,EAT                                    DON'T EAT,2608.3196,2598.2444,2514.8982,right,2,right,right,not_eat,not_eat,approach,neg,approach-neg,1,1,665
sub-048,185,1,FALSE,left,approach,neg,insect2_crop.jpg,3,19,TRUE,184,1,2610.9924,48,EAT                                    DON'T EAT,2610.338,2598.2444,2514.8982,right,1,left,left,eat,eat,approach,neg,approach-neg,1,1,654.3999999999069
sub-048,186,1,FALSE,left,approach,neg,insect34_crop.jpg,3,19,TRUE,185,1,2613.0427,48,EAT                                    DON'T EAT,2612.3562,2598.2444,2514.8982,right,1,left,left,eat,eat,approach,neg,approach-neg,1,1,686.5
sub-048,187,1,FALSE,left,approach,neg,insect17_crop.jpg,3,19,TRUE,186,1,2615.1658,48,EAT                                    DON'T EAT,2614.3745,2598.2444,2514.8982,right,1,left,left,eat,eat,approach,neg,approach-neg,1,1,791.3000000002794
sub-048,188,1,TRUE,left,avoid,neg,fungus19_crop.jpg,3,19,TRUE,187,2,2617.2627,48,EAT                                    DON'T EAT,2616.393,2598.2444,2514.8982,right,2,right,right,not_eat,not_eat,approach,neg,approach-neg,1,1,869.7000000001863
sub-048,189,1,FALSE,left,approach,neg,insect3_crop.jpg,3,19,TRUE,188,1,2619.6277,48,EAT                                    DON'T EAT,2618.4106,2598.2444,2514.8982,right,1,left,left,eat,eat,approach,neg,approach-neg,1,1,1217.1000000000931
sub-048,190,1,FALSE,left,approach,neg,insect38_crop.jpg,3,19,TRUE,189,1,2621.0186,48,EAT                                    DON'T EAT,2620.4294,2598.2444,2514.8982,right,1,left,left,eat,eat,approach,neg,approach-neg,1,1,589.2000000001863
sub-048,191,1,FALSE,right,avoid,pos,meat36_crop.jpg,3,20,TRUE,190,2,2640.1826,48,EAT                                    DON'T EAT,2639.3787,2635.3586,2514.8982,right,2,right,right,not_eat,not_eat,avoid,pos,avoid-pos,1,1,803.8999999999069
sub-048,192,1,FALSE,right,avoid,pos,meat28_crop.jpg,3,20,TRUE,191,2,2642.1238,48,EAT                                    DON'T EAT,2641.397,2635.3586,2514.8982,right,2,right,right,not_eat,not_eat,avoid,pos,avoid-pos,1,1,726.7999999998137
sub-048,193,1,TRUE,right,approach,pos,cake28_crop.jpg,3,20,TRUE,192,1,2644.1343,48,EAT                                    DON'T EAT,2643.4153,2635.3586,2514.8982,right,1,left,left,eat,eat,avoid,pos,avoid-pos,1,1,719
sub-048,194,1,FALSE,right,avoid,pos,meat15_crop.jpg,3,20,TRUE,193,2,2646.2573,48,EAT                                    DON'T EAT,2645.4333,2635.3586,2514.8982,right,2,right,right,not_eat,not_eat,avoid,pos,avoid-pos,1,1,824
sub-048,195,1,FALSE,right,avoid,pos,meat12_crop.jpg,3,20,TRUE,194,2,2648.4138,48,EAT                                    DON'T EAT,2647.4521,2635.3586,2514.8982,right,2,right,right,not_eat,not_eat,avoid,pos,avoid-pos,1,1,961.6999999997206
sub-048,196,1,FALSE,right,avoid,pos,meat9_crop.jpg,3,20,TRUE,195,2,2650.5137,48,EAT                                    DON'T EAT,2649.4702,2635.3586,2514.8982,right,2,right,right,not_eat,not_eat,avoid,pos,avoid-pos,1,1,1043.5
sub-048,197,1,TRUE,right,approach,neg,insect23_crop.jpg,3,20,TRUE,196,1,2652.208,48,EAT                                    DON'T EAT,2651.4885,2635.3586,2514.8982,right,1,left,left,eat,eat,avoid,pos,avoid-pos,1,1,719.5
sub-048,198,1,FALSE,right,avoid,pos,meat20_crop.jpg,3,20,TRUE,197,2,2654.3289,48,EAT                                    DON'T EAT,2653.5068,2635.3586,2514.8982,right,2,right,right,not_eat,not_eat,avoid,pos,avoid-pos,1,1,822.0999999996275
sub-048,199,1,FALSE,right,avoid,pos,meat18_crop.jpg,3,20,TRUE,198,2,2656.179,48,EAT                                    DON'T EAT,2655.5254,2635.3586,2514.8982,right,2,right,right,not_eat,not_eat,avoid,pos,avoid-pos,1,1,653.6000000000931
sub-048,200,1,FALSE,right,avoid,pos,meat17_crop.jpg,3,20,TRUE,199,2,2658.5986,48,EAT                                    DON'T EAT,2657.5435,2635.3586,2514.8982,right,2,right,right,not_eat,not_eat,avoid,pos,avoid-pos,1,1,1055.0999999996275
sub-048,201,1,FALSE,left,avoid,neg,fungus20_crop.jpg,3,21,TRUE,200,2,2678.1702,48,EAT                                    DON'T EAT,2676.7595,2672.7395,2514.8982,right,2,right,right,not_eat,not_eat,avoid,neg,avoid-neg,1,1,1410.7000000001863
sub-048,202,1,FALSE,left,avoid,neg,fungus6_crop.jpg,3,21,TRUE,201,2,2679.359,48,EAT                                    DON'T EAT,2678.778,2672.7395,2514.8982,right,2,right,right,not_eat,not_eat,avoid,neg,avoid-neg,1,1,581
sub-048,203,1,FALSE,left,avoid,neg,fungus31_crop.jpg,3,21,TRUE,202,2,2681.448,48,EAT                                    DON'T EAT,2680.7957,2672.7395,2514.8982,right,2,right,right,not_eat,not_eat,avoid,neg,avoid-neg,1,1,652.2999999998137
sub-048,204,1,TRUE,left,approach,pos,cake8_crop.jpg,3,21,TRUE,203,1,2683.5754,48,EAT                                    DON'T EAT,2682.8145,2672.7395,2514.8982,right,1,left,left,eat,eat,avoid,neg,avoid-neg,1,1,760.9000000003725
sub-048,205,1,TRUE,left,approach,neg,insect13_crop.jpg,3,21,TRUE,204,1,2685.6804,48,EAT                                    DON'T EAT,2684.833,2672.7395,2514.8982,right,1,left,left,eat,eat,avoid,neg,avoid-neg,1,1,847.4000000003725
sub-048,206,1,FALSE,left,avoid,neg,fungus9_crop.jpg,3,21,TRUE,205,2,2687.6865,48,EAT                                    DON'T EAT,2686.8513,2672.7395,2514.8982,right,2,right,right,not_eat,not_eat,avoid,neg,avoid-neg,1,1,835.2000000001863
sub-048,207,1,FALSE,left,avoid,neg,fungus33_crop.jpg,3,21,TRUE,206,2,2689.5474,48,EAT                                    DON'T EAT,2688.8696,2672.7395,2514.8982,right,2,right,right,not_eat,not_eat,avoid,neg,avoid-neg,1,1,677.7999999998137
sub-048,208,1,FALSE,left,avoid,neg,fungus4_crop.jpg,3,21,TRUE,207,2,2691.7249,48,EAT                                    DON'T EAT,2690.8875,2672.7395,2514.8982,right,2,right,right,not_eat,not_eat,avoid,neg,avoid-neg,1,1,837.4000000003725
sub-048,209,1,FALSE,left,avoid,neg,fungus36_crop.jpg,3,21,TRUE,208,2,2693.613,48,EAT                                    DON'T EAT,2692.9065,2672.7395,2514.8982,right,2,right,right,not_eat,not_eat,avoid,neg,avoid-neg,1,1,706.5
sub-048,210,1,FALSE,left,avoid,neg,fungus39_crop.jpg,3,21,TRUE,209,2,2695.6619,48,EAT                                    DON'T EAT,2694.9243,2672.7395,2514.8982,right,2,right,right,not_eat,not_eat,avoid,neg,avoid-neg,1,1,737.5999999996275
sub-048,211,3,FALSE,right,avoid,neg,fungus8_crop.jpg,3,22,TRUE,210,2,2715.758,48,EAT                                    DON'T EAT,2714.7744,2710.7542,2514.8982,right,2,right,right,not_eat,not_eat,avoid,neg,avoid-neg,1,1,983.6000000000931
sub-048,212,3,FALSE,right,avoid,neg,fungus7_crop.jpg,3,22,TRUE,211,2,2717.4482,48,EAT                                    DON'T EAT,2716.793,2710.7542,2514.8982,right,2,right,right,not_eat,not_eat,avoid,neg,avoid-neg,1,1,655.1999999997206
sub-048,213,3,FALSE,right,avoid,neg,fungus38_crop.jpg,3,22,TRUE,212,2,2719.4053,48,EAT                                    DON'T EAT,2718.811,2710.7542,2514.8982,right,2,right,right,not_eat,not_eat,avoid,neg,avoid-neg,1,1,594.2999999998137
sub-048,214,3,FALSE,right,avoid,neg,fungus40_crop.jpg,3,22,TRUE,213,2,2721.5325,48,EAT                                    DON'T EAT,2720.8289,2710.7542,2514.8982,right,2,right,right,not_eat,not_eat,avoid,neg,avoid-neg,1,1,703.6000000000931
sub-048,215,3,TRUE,right,approach,pos,cake17_crop.jpg,3,22,TRUE,214,1,2723.5508,48,EAT                                    DON'T EAT,2722.848,2710.7542,2514.8982,right,1,left,left,eat,eat,avoid,neg,avoid-neg,1,1,702.7999999998137
sub-048,216,3,FALSE,right,avoid,neg,fungus29_crop.jpg,3,22,TRUE,215,2,2725.9917,48,EAT                                    DON'T EAT,2724.8662,2710.7542,2514.8982,right,2,right,right,not_eat,not_eat,avoid,neg,avoid-neg,1,1,1125.5000000004657
sub-048,217,3,FALSE,right,avoid,neg,fungus27_crop.jpg,3,22,TRUE,216,2,2727.5586,48,EAT                                    DON'T EAT,2726.8845,2710.7542,2514.8982,right,2,right,right,not_eat,not_eat,avoid,neg,avoid-neg,1,1,674.0999999996275
sub-048,218,3,TRUE,right,approach,neg,insect7_crop.jpg,3,22,TRUE,217,1,2729.7786,48,EAT                                    DON'T EAT,2728.903,2710.7542,2514.8982,right,1,left,left,eat,eat,avoid,neg,avoid-neg,1,1,875.6000000000931
sub-048,219,3,FALSE,right,avoid,neg,fungus19_crop.jpg,3,22,TRUE,218,2,2732.267,48,EAT                                    DON'T EAT,2730.9207,2710.7542,2514.8982,right,2,right,right,not_eat,not_eat,avoid,neg,avoid-neg,1,1,1346.2999999998137
sub-048,220,3,FALSE,right,avoid,neg,fungus37_crop.jpg,3,22,TRUE,219,2,2733.6985,48,EAT                                    DON'T EAT,2732.9397,2710.7542,2514.8982,right,2,right,right,not_eat,not_eat,avoid,neg,avoid-neg,1,1,758.8000000002794
sub-048,221,3,TRUE,right,avoid,pos,meat3_crop.jpg,3,23,TRUE,220,2,2752.8594,48,EAT                                    DON'T EAT,2752.0889,2748.069,2514.8982,right,2,right,right,not_eat,not_eat,approach,pos,approach-pos,1,1,770.4999999995343
sub-048,222,3,FALSE,right,approach,pos,cake5_crop.jpg,3,23,TRUE,221,1,2754.844,48,EAT                                    DON'T EAT,2754.107,2748.069,2514.8982,right,1,left,left,eat,eat,approach,pos,approach-pos,1,1,737
sub-048,223,3,FALSE,right,approach,pos,cake22_crop.jpg,3,23,TRUE,222,1,2756.85,48,EAT                                    DON'T EAT,2756.1255,2748.069,2514.8982,right,1,left,left,eat,eat,approach,pos,approach-pos,1,1,724.5
sub-048,224,3,FALSE,right,approach,pos,cake31_crop.jpg,3,23,TRUE,223,1,2758.7896,48,EAT                                    DON'T EAT,2758.1438,2748.069,2514.8982,right,1,left,left,eat,eat,approach,pos,approach-pos,1,1,645.8000000002794
sub-048,225,3,FALSE,right,approach,pos,cake8_crop.jpg,3,23,TRUE,224,1,2760.762,48,EAT                                    DON'T EAT,2760.1616,2748.069,2514.8982,right,1,left,left,eat,eat,approach,pos,approach-pos,1,1,600.3999999999069
sub-048,226,3,FALSE,right,approach,pos,cake13_crop.jpg,3,23,TRUE,225,1,2762.876,48,EAT                                    DON'T EAT,2762.1804,2748.069,2514.8982,right,1,left,left,eat,eat,approach,pos,approach-pos,1,1,695.5999999996275
sub-048,227,3,FALSE,right,approach,pos,cake40_crop.jpg,3,23,TRUE,226,1,2764.8206,48,EAT                                    DON'T EAT,2764.199,2748.069,2514.8982,right,1,left,left,eat,eat,approach,pos,approach-pos,1,1,621.6000000000931
sub-048,228,3,FALSE,right,approach,pos,cake16_crop.jpg,3,23,TRUE,227,1,2766.8594,48,EAT                                    DON'T EAT,2766.2173,2748.069,2514.8982,right,1,left,left,eat,eat,approach,pos,approach-pos,1,1,642.1000000000931
sub-048,229,3,TRUE,right,avoid,neg,fungus15_crop.jpg,3,23,TRUE,228,2,2769.2568,48,EAT                                    DON'T EAT,2768.2356,2748.069,2514.8982,right,2,right,right,not_eat,not_eat,approach,pos,approach-pos,1,1,1021.2000000001863
sub-048,230,3,FALSE,right,approach,pos,cake35_crop.jpg,3,23,TRUE,229,1,2771.8438,48,EAT                                    DON'T EAT,2770.254,2748.069,2514.8982,right,1,left,left,eat,eat,approach,pos,approach-pos,1,1,1589.8000000002794
sub-048,231,1,FALSE,left,approach,pos,cake25_crop.jpg,3,24,TRUE,230,1,2789.5618,48,EAT                                    DON'T EAT,2788.8528,2784.8325,2514.8982,right,1,left,left,eat,eat,approach,pos,approach-pos,1,1,708.9999999995343
sub-048,232,1,FALSE,left,approach,pos,cake2_crop.jpg,3,24,TRUE,231,1,2791.5,48,EAT                                    DON'T EAT,2790.8706,2784.8325,2514.8982,right,1,left,left,eat,eat,approach,pos,approach-pos,1,1,629.3999999999069
sub-048,233,1,FALSE,left,approach,pos,cake28_crop.jpg,3,24,TRUE,232,1,2793.6157,48,EAT                                    DON'T EAT,2792.8887,2784.8325,2514.8982,right,1,left,left,eat,eat,approach,pos,approach-pos,1,1,726.9999999995343
sub-048,234,1,FALSE,left,approach,pos,cake37_crop.jpg,3,24,TRUE,233,1,2795.7085,48,EAT                                    DON'T EAT,2794.9077,2784.8325,2514.8982,right,1,left,left,eat,eat,approach,pos,approach-pos,1,1,800.7999999998137
sub-048,235,1,FALSE,left,approach,pos,cake30_crop.jpg,3,24,TRUE,234,1,2797.3918,48,EAT                                    DON'T EAT,2796.926,2784.8325,2514.8982,right,1,left,left,eat,eat,approach,pos,approach-pos,1,1,465.79999999981374
sub-048,236,1,FALSE,left,approach,pos,cake34_crop.jpg,3,24,TRUE,235,1,2799.7673,48,EAT                                    DON'T EAT,2798.944,2784.8325,2514.8982,right,1,left,left,eat,eat,approach,pos,approach-pos,1,1,823.2999999998137
sub-048,237,1,FALSE,left,approach,pos,cake22_crop.jpg,3,24,TRUE,236,1,2801.571,48,EAT                                    DON'T EAT,2800.9624,2784.8325,2514.8982,right,1,left,left,eat,eat,approach,pos,approach-pos,1,1,608.6000000000931
sub-048,238,1,TRUE,left,avoid,pos,meat15_crop.jpg,3,24,TRUE,237,1,2803.5386,48,EAT                                    DON'T EAT,2802.9812,2784.8325,2514.8982,right,1,left,left,eat,eat,approach,pos,approach-pos,0,0,557.3999999994412
sub-048,239,1,TRUE,left,avoid,neg,fungus14_crop.jpg,3,24,TRUE,238,2,2805.6863,48,EAT                                    DON'T EAT,2804.9995,2784.8325,2514.8982,right,2,right,right,not_eat,not_eat,approach,pos,approach-pos,1,1,686.7999999998137
sub-048,240,1,FALSE,left,approach,pos,cake21_crop.jpg,3,24,TRUE,239,1,2808.3774,48,EAT                                    DON'T EAT,2807.0178,2784.8325,2514.8982,right,1,left,left,eat,eat,approach,pos,approach-pos,1,1,1359.5999999996275
sub-048,241,0,FALSE,right,approach,neg,insect3_crop.jpg,4,25,TRUE,240,1,2898.487,48,EAT                                    DON'T EAT,2897.3762,2893.356,2880.3594,left,1,left,left,eat,eat,approach,neg,approach-neg,1,1,1110.7999999998137
sub-048,242,0,FALSE,right,approach,neg,insect29_crop.jpg,4,25,TRUE,241,1,2900.1746,48,EAT                                    DON'T EAT,2899.3943,2893.356,2880.3594,left,1,left,left,eat,eat,approach,neg,approach-neg,1,1,780.2999999998137
sub-048,243,0,FALSE,right,approach,neg,insect32_crop.jpg,4,25,TRUE,242,1,2902.0015,48,EAT                                    DON'T EAT,2901.4128,2893.356,2880.3594,left,1,left,left,eat,eat,approach,neg,approach-neg,1,1,588.6999999997206
sub-048,244,0,FALSE,right,approach,neg,insect26_crop.jpg,4,25,TRUE,243,1,2904.1052,48,EAT                                    DON'T EAT,2903.4312,2893.356,2880.3594,left,1,left,left,eat,eat,approach,neg,approach-neg,1,1,674
sub-048,245,0,FALSE,right,approach,neg,insect35_crop.jpg,4,25,TRUE,244,1,2906.053,48,EAT                                    DON'T EAT,2905.4495,2893.356,2880.3594,left,1,left,left,eat,eat,approach,neg,approach-neg,1,1,603.5
sub-048,246,0,FALSE,right,approach,neg,insect11_crop.jpg,4,25,TRUE,245,1,2908.1235,48,EAT                                    DON'T EAT,2907.4678,2893.356,2880.3594,left,1,left,left,eat,eat,approach,neg,approach-neg,1,1,655.7000000001863
sub-048,247,0,TRUE,right,avoid,neg,fungus35_crop.jpg,4,25,TRUE,246,2,2910.5137,48,EAT                                    DON'T EAT,2909.486,2893.356,2880.3594,left,2,right,right,not_eat,not_eat,approach,neg,approach-neg,1,1,1027.7000000001863
sub-048,248,0,TRUE,right,avoid,pos,meat11_crop.jpg,4,25,TRUE,247,2,2912.53,48,EAT                                    DON'T EAT,2911.5044,2893.356,2880.3594,left,2,right,right,not_eat,not_eat,approach,neg,approach-neg,1,1,1025.6000000000931
sub-048,249,0,FALSE,right,approach,neg,insect34_crop.jpg,4,25,TRUE,248,1,2914.682,48,EAT                                    DON'T EAT,2913.523,2893.356,2880.3594,left,1,left,left,eat,eat,approach,neg,approach-neg,1,1,1159
sub-048,250,0,FALSE,right,approach,neg,insect24_crop.jpg,4,25,TRUE,249,1,2916.2705,48,EAT                                    DON'T EAT,2915.5413,2893.356,2880.3594,left,1,left,left,eat,eat,approach,neg,approach-neg,1,1,729.2000000001863
sub-048,251,2,TRUE,right,avoid,pos,meat35_crop.jpg,4,26,TRUE,250,2,2936.1658,48,EAT                                    DON'T EAT,2935.124,2931.1038,2880.3594,left,2,right,right,not_eat,not_eat,approach,pos,approach-pos,1,1,1041.8000000002794
sub-048,252,2,FALSE,right,approach,pos,cake24_crop.jpg,4,26,TRUE,251,2,2937.6807,48,EAT                                    DON'T EAT,2937.1426,2931.1038,2880.3594,left,2,right,right,not_eat,not_eat,approach,pos,approach-pos,0,0,538.0999999996275
sub-048,253,2,FALSE,right,approach,pos,cake39_crop.jpg,4,26,TRUE,252,1,2939.955,48,EAT                                    DON'T EAT,2939.161,2931.1038,2880.3594,left,1,left,left,eat,eat,approach,pos,approach-pos,1,1,794
sub-048,254,2,FALSE,right,approach,pos,cake36_crop.jpg,4,26,TRUE,253,1,2941.8176,48,EAT                                    DON'T EAT,2941.1785,2931.1038,2880.3594,left,1,left,left,eat,eat,approach,pos,approach-pos,1,1,639.0999999996275
sub-048,255,2,FALSE,right,approach,pos,cake30_crop.jpg,4,26,TRUE,254,1,2944.1377,48,EAT                                    DON'T EAT,2943.1978,2931.1038,2880.3594,left,1,left,left,eat,eat,approach,pos,approach-pos,1,1,939.9000000003725
sub-048,256,2,FALSE,right,approach,pos,cake34_crop.jpg,4,26,TRUE,255,1,2945.955,48,EAT                                    DON'T EAT,2945.216,2931.1038,2880.3594,left,1,left,left,eat,eat,approach,pos,approach-pos,1,1,739
sub-048,257,2,FALSE,right,approach,pos,cake37_crop.jpg,4,26,TRUE,256,1,2947.975,48,EAT                                    DON'T EAT,2947.2344,2931.1038,2880.3594,left,1,left,left,eat,eat,approach,pos,approach-pos,1,1,740.6000000000931
sub-048,258,2,FALSE,right,approach,pos,cake23_crop.jpg,4,26,TRUE,257,1,2950.0022,48,EAT                                    DON'T EAT,2949.2527,2931.1038,2880.3594,left,1,left,left,eat,eat,approach,pos,approach-pos,1,1,749.4999999995343
sub-048,259,2,FALSE,right,approach,pos,cake19_crop.jpg,4,26,TRUE,258,1,2952.5833,48,EAT                                    DON'T EAT,2951.2705,2931.1038,2880.3594,left,1,left,left,eat,eat,approach,pos,approach-pos,1,1,1312.7999999998137
sub-048,260,2,TRUE,right,avoid,neg,fungus5_crop.jpg,4,26,TRUE,259,2,2954.3027,48,EAT                                    DON'T EAT,2953.2893,2931.1038,2880.3594,left,2,right,right,not_eat,not_eat,approach,pos,approach-pos,1,1,1013.4000000003725
sub-048,261,2,FALSE,left,approach,neg,insect12_crop.jpg,4,27,TRUE,260,1,2972.0305,48,EAT                                    DON'T EAT,2970.9868,2966.9673,2880.3594,left,1,left,left,eat,eat,approach,neg,approach-neg,1,1,1043.6999999997206
sub-048,262,2,FALSE,left,approach,neg,insect25_crop.jpg,4,27,TRUE,261,1,2973.7544,48,EAT                                    DON'T EAT,2973.0056,2966.9673,2880.3594,left,1,left,left,eat,eat,approach,neg,approach-neg,1,1,748.7999999998137
sub-048,263,2,TRUE,left,avoid,pos,meat28_crop.jpg,4,27,TRUE,262,2,2976.2441,48,EAT                                    DON'T EAT,2975.024,2966.9673,2880.3594,left,2,right,right,not_eat,not_eat,approach,neg,approach-neg,1,1,1220.1000000000931
sub-048,264,2,FALSE,left,approach,neg,insect23_crop.jpg,4,27,TRUE,263,1,2977.9104,48,EAT                                    DON'T EAT,2977.0425,2966.9673,2880.3594,left,1,left,left,eat,eat,approach,neg,approach-neg,1,1,867.9000000003725
sub-048,265,2,FALSE,left,approach,neg,insect19_crop.jpg,4,27,TRUE,264,1,2979.7522,48,EAT                                    DON'T EAT,2979.0605,2966.9673,2880.3594,left,1,left,left,eat,eat,approach,neg,approach-neg,1,1,691.6999999997206
sub-048,266,2,FALSE,left,approach,neg,insect28_crop.jpg,4,27,TRUE,265,1,2982.023,48,EAT                                    DON'T EAT,2981.0784,2966.9673,2880.3594,left,1,left,left,eat,eat,approach,neg,approach-neg,1,1,944.6000000000931
sub-048,267,2,FALSE,left,approach,neg,insect5_crop.jpg,4,27,TRUE,266,1,2984.6038,48,EAT                                    DON'T EAT,2983.0972,2966.9673,2880.3594,left,1,left,left,eat,eat,approach,neg,approach-neg,1,1,1506.5999999996275
sub-048,268,2,TRUE,left,avoid,neg,fungus35_crop.jpg,4,27,TRUE,267,2,2986.984,48,EAT                                    DON'T EAT,2985.1157,2966.9673,2880.3594,left,2,right,right,not_eat,not_eat,approach,neg,approach-neg,1,1,1868.3000000002794
sub-048,269,2,FALSE,left,approach,neg,insect35_crop.jpg,4,27,TRUE,268,1,2988.1772,48,EAT                                    DON'T EAT,2987.134,2966.9673,2880.3594,left,1,left,left,eat,eat,approach,neg,approach-neg,1,1,1043.2000000001863
sub-048,270,2,FALSE,left,approach,neg,insect36_crop.jpg,4,27,TRUE,269,1,2990.217,48,EAT                                    DON'T EAT,2989.1523,2966.9673,2880.3594,left,1,left,left,eat,eat,approach,neg,approach-neg,1,1,1064.6999999997206
sub-048,271,2,FALSE,left,approach,pos,cake35_crop.jpg,4,28,TRUE,270,1,3009.4504,48,EAT                                    DON'T EAT,3008.585,3004.5815,2880.3594,left,1,left,left,eat,eat,approach,pos,approach-pos,1,1,865.4000000003725
sub-048,272,2,FALSE,left,approach,pos,cake15_crop.jpg,4,28,TRUE,271,1,3011.2097,48,EAT                                    DON'T EAT,3010.6035,3004.5815,2880.3594,left,1,left,left,eat,eat,approach,pos,approach-pos,1,1,606.1999999997206
sub-048,273,2,FALSE,left,approach,pos,cake9_crop.jpg,4,28,TRUE,272,1,3013.2656,48,EAT                                    DON'T EAT,3012.6218,3004.5815,2880.3594,left,1,left,left,eat,eat,approach,pos,approach-pos,1,1,643.8000000002794
sub-048,274,2,FALSE,left,approach,pos,cake19_crop.jpg,4,28,TRUE,273,1,3015.3157,48,EAT                                    DON'T EAT,3014.6401,3004.5815,2880.3594,left,1,left,left,eat,eat,approach,pos,approach-pos,1,1,675.6000000000931
sub-048,275,2,FALSE,left,approach,pos,cake10_crop.jpg,4,28,TRUE,274,1,3017.293,48,EAT                                    DON'T EAT,3016.6587,3004.5815,2880.3594,left,1,left,left,eat,eat,approach,pos,approach-pos,1,1,634.2999999998137
sub-048,276,2,TRUE,left,avoid,neg,fungus25_crop.jpg,4,28,TRUE,275,2,3019.5417,48,EAT                                    DON'T EAT,3018.6768,3004.5815,2880.3594,left,2,right,right,not_eat,not_eat,approach,pos,approach-pos,1,1,864.8999999999069
sub-048,277,2,TRUE,left,avoid,pos,meat3_crop.jpg,4,28,TRUE,276,2,3021.8555,48,EAT                                    DON'T EAT,3020.6953,3004.5815,2880.3594,left,2,right,right,not_eat,not_eat,approach,pos,approach-pos,1,1,1160.2000000001863
sub-048,278,2,FALSE,left,approach,pos,cake26_crop.jpg,4,28,TRUE,277,1,3023.9243,48,EAT                                    DON'T EAT,3022.7134,3004.5815,2880.3594,left,1,left,left,eat,eat,approach,pos,approach-pos,1,1,1210.9000000003725
sub-048,279,2,FALSE,left,approach,pos,cake36_crop.jpg,4,28,TRUE,278,1,3026.0598,48,EAT                                    DON'T EAT,3024.732,3004.5815,2880.3594,left,1,left,left,eat,eat,approach,pos,approach-pos,1,1,1327.7999999998137
sub-048,280,2,FALSE,left,approach,pos,cake24_crop.jpg,4,28,TRUE,279,1,3027.4253,48,EAT                                    DON'T EAT,3026.7502,3004.5815,2880.3594,left,1,left,left,eat,eat,approach,pos,approach-pos,1,1,675.1000000000931
sub-048,281,1,FALSE,right,approach,pos,cake9_crop.jpg,4,29,TRUE,280,1,3047.4282,48,EAT                                    DON'T EAT,3046.7834,3042.7632,2880.3594,left,1,left,left,eat,eat,approach,pos,approach-pos,1,1,644.7999999998137
sub-048,282,1,FALSE,right,approach,pos,cake15_crop.jpg,4,29,TRUE,281,1,3049.4575,48,EAT                                    DON'T EAT,3048.8018,3042.7632,2880.3594,left,1,left,left,eat,eat,approach,pos,approach-pos,1,1,655.6999999997206
sub-048,283,1,FALSE,right,approach,pos,cake7_crop.jpg,4,29,TRUE,282,1,3052.4097,48,EAT                                    DON'T EAT,3050.8203,3042.7632,2880.3594,left,1,left,left,eat,eat,approach,pos,approach-pos,1,1,1589.4000000003725
sub-048,284,1,FALSE,right,approach,pos,cake33_crop.jpg,4,29,TRUE,283,1,3053.692,48,EAT                                    DON'T EAT,3052.8386,3042.7632,2880.3594,left,1,left,left,eat,eat,approach,pos,approach-pos,1,1,853.3999999999069
sub-048,285,1,FALSE,right,approach,pos,cake10_crop.jpg,4,29,TRUE,284,1,3055.531,48,EAT                                    DON'T EAT,3054.857,3042.7632,2880.3594,left,1,left,left,eat,eat,approach,pos,approach-pos,1,1,674
sub-048,286,1,FALSE,right,approach,pos,cake29_crop.jpg,4,29,TRUE,285,1,3057.909,48,EAT                                    DON'T EAT,3056.8752,3042.7632,2880.3594,left,1,left,left,eat,eat,approach,pos,approach-pos,1,1,1033.8000000002794
sub-048,287,1,FALSE,right,approach,pos,cake20_crop.jpg,4,29,TRUE,286,1,3059.7297,48,EAT                                    DON'T EAT,3058.8936,3042.7632,2880.3594,left,1,left,left,eat,eat,approach,pos,approach-pos,1,1,836.0999999996275
sub-048,288,1,TRUE,right,avoid,pos,meat2_crop.jpg,4,29,TRUE,287,2,3061.8994,48,EAT                                    DON'T EAT,3060.912,3042.7632,2880.3594,left,2,right,right,not_eat,not_eat,approach,pos,approach-pos,1,1,987.3999999999069
sub-048,289,1,TRUE,right,avoid,neg,fungus20_crop.jpg,4,29,TRUE,288,2,3063.7856,48,EAT                                    DON'T EAT,3062.9302,3042.7632,2880.3594,left,2,right,right,not_eat,not_eat,approach,pos,approach-pos,1,1,855.4000000003725
sub-048,290,1,FALSE,right,approach,pos,cake4_crop.jpg,4,29,TRUE,289,1,3065.7065,48,EAT                                    DON'T EAT,3064.9487,3042.7632,2880.3594,left,1,left,left,eat,eat,approach,pos,approach-pos,1,1,757.8000000002794
sub-048,291,0,FALSE,left,approach,neg,insect15_crop.jpg,4,30,TRUE,290,1,3082.8547,48,EAT                                    DON'T EAT,3082.1296,3078.1096,2880.3594,left,1,left,left,eat,eat,approach,neg,approach-neg,1,1,725.0999999996275
sub-048,292,0,FALSE,left,approach,neg,insect32_crop.jpg,4,30,TRUE,291,1,3084.623,48,EAT                                    DON'T EAT,3084.148,3078.1096,2880.3594,left,1,left,left,eat,eat,approach,neg,approach-neg,1,1,475
sub-048,293,0,FALSE,left,approach,neg,insect9_crop.jpg,4,30,TRUE,292,1,3086.7021,48,EAT                                    DON'T EAT,3086.166,3078.1096,2880.3594,left,1,left,left,eat,eat,approach,neg,approach-neg,1,1,536.1000000000931
sub-048,294,0,FALSE,left,approach,neg,insect33_crop.jpg,4,30,TRUE,293,1,3089.1636,48,EAT                                    DON'T EAT,3088.1846,3078.1096,2880.3594,left,1,left,left,eat,eat,approach,neg,approach-neg,1,1,978.9999999995343
sub-048,295,0,TRUE,left,avoid,pos,meat17_crop.jpg,4,30,TRUE,294,2,3091.2742,48,EAT                                    DON'T EAT,3090.203,3078.1096,2880.3594,left,2,right,right,not_eat,not_eat,approach,neg,approach-neg,1,1,1071.1999999997206
sub-048,296,0,FALSE,left,approach,neg,insect10_crop.jpg,4,30,TRUE,295,1,3092.8967,48,EAT                                    DON'T EAT,3092.2214,3078.1096,2880.3594,left,1,left,left,eat,eat,approach,neg,approach-neg,1,1,675.2999999998137
sub-048,297,0,FALSE,left,approach,neg,insect30_crop.jpg,4,30,TRUE,296,1,3094.9148,48,EAT                                    DON'T EAT,3094.2395,3078.1096,2880.3594,left,1,left,left,eat,eat,approach,neg,approach-neg,1,1,675.2999999998137
sub-048,298,0,FALSE,left,approach,neg,insect7_crop.jpg,4,30,TRUE,297,1,3097.137,48,EAT                                    DON'T EAT,3096.258,3078.1096,2880.3594,left,1,left,left,eat,eat,approach,neg,approach-neg,1,1,879
sub-048,299,0,TRUE,left,avoid,neg,fungus5_crop.jpg,4,30,TRUE,298,2,3099.0938,48,EAT                                    DON'T EAT,3098.2761,3078.1096,2880.3594,left,2,right,right,not_eat,not_eat,approach,neg,approach-neg,1,1,817.7000000001863
sub-048,300,0,FALSE,left,approach,neg,insect40_crop.jpg,4,30,TRUE,299,--,NA,48,EAT                                    DON'T EAT,3100.2944,3078.1096,2880.3594,left,--,NA,NA,no_response,no_response,approach,neg,approach-neg,NA,NA,NA
sub-048,301,0,FALSE,left,avoid,pos,meat14_crop.jpg,4,31,TRUE,300,2,3120.0115,48,EAT                                    DON'T EAT,3119.0435,3115.0232,2880.3594,left,2,right,right,not_eat,not_eat,avoid,pos,avoid-pos,1,1,968
sub-048,302,0,FALSE,left,avoid,pos,meat39_crop.jpg,4,31,TRUE,301,2,3121.84,48,EAT                                    DON'T EAT,3121.0623,3115.0232,2880.3594,left,2,right,right,not_eat,not_eat,avoid,pos,avoid-pos,1,1,777.6999999997206
sub-048,303,0,TRUE,left,approach,neg,insect21_crop.jpg,4,31,TRUE,302,1,3123.9128,48,EAT                                    DON'T EAT,3123.0803,3115.0232,2880.3594,left,1,left,left,eat,eat,avoid,pos,avoid-pos,1,1,832.5
sub-048,304,0,FALSE,left,avoid,pos,meat19_crop.jpg,4,31,TRUE,303,2,3125.7764,48,EAT                                    DON'T EAT,3125.0986,3115.0232,2880.3594,left,2,right,right,not_eat,not_eat,avoid,pos,avoid-pos,1,1,677.8000000007451
sub-048,305,0,FALSE,left,avoid,pos,meat29_crop.jpg,4,31,TRUE,304,2,3127.8777,48,EAT                                    DON'T EAT,3127.117,3115.0232,2880.3594,left,2,right,right,not_eat,not_eat,avoid,pos,avoid-pos,1,1,760.7000000001863
sub-048,306,0,FALSE,left,avoid,pos,meat35_crop.jpg,4,31,TRUE,305,2,3130.2026,48,EAT                                    DON'T EAT,3129.135,3115.0232,2880.3594,left,2,right,right,not_eat,not_eat,avoid,pos,avoid-pos,1,1,1067.6000000000931
sub-048,307,0,FALSE,left,avoid,pos,meat36_crop.jpg,4,31,TRUE,306,2,3131.827,48,EAT                                    DON'T EAT,3131.1533,3115.0232,2880.3594,left,2,right,right,not_eat,not_eat,avoid,pos,avoid-pos,1,1,673.7000000001863
sub-048,308,0,TRUE,left,approach,pos,cake6_crop.jpg,4,31,TRUE,307,1,3134.0688,48,EAT                                    DON'T EAT,3133.1719,3115.0232,2880.3594,left,1,left,left,eat,eat,avoid,pos,avoid-pos,1,1,896.8999999999069
sub-048,309,0,FALSE,left,avoid,pos,meat32_crop.jpg,4,31,TRUE,308,2,3136.0505,48,EAT                                    DON'T EAT,3135.19,3115.0232,2880.3594,left,2,right,right,not_eat,not_eat,avoid,pos,avoid-pos,1,1,860.5
sub-048,310,0,FALSE,left,avoid,pos,meat5_crop.jpg,4,31,TRUE,309,2,3137.9175,48,EAT                                    DON'T EAT,3137.2087,3115.0232,2880.3594,left,2,right,right,not_eat,not_eat,avoid,pos,avoid-pos,1,1,708.7999999998137
sub-048,311,1,FALSE,left,avoid,pos,meat1_crop.jpg,4,32,TRUE,310,2,3155.6365,48,EAT                                    DON'T EAT,3154.74,3150.7197,2880.3594,left,2,right,right,not_eat,not_eat,avoid,pos,avoid-pos,1,1,896.5
sub-048,312,1,FALSE,left,avoid,pos,meat6_crop.jpg,4,32,TRUE,311,2,3157.394,48,EAT                                    DON'T EAT,3156.7583,3150.7197,2880.3594,left,2,right,right,not_eat,not_eat,avoid,pos,avoid-pos,1,1,635.7000000001863
sub-048,313,1,FALSE,left,avoid,pos,meat26_crop.jpg,4,32,TRUE,312,2,3159.634,48,EAT                                    DON'T EAT,3158.7764,3150.7197,2880.3594,left,2,right,right,not_eat,not_eat,avoid,pos,avoid-pos,1,1,857.5999999996275
sub-048,314,1,FALSE,left,avoid,pos,meat21_crop.jpg,4,32,TRUE,313,2,3161.6265,48,EAT                                    DON'T EAT,3160.795,3150.7197,2880.3594,left,2,right,right,not_eat,not_eat,avoid,pos,avoid-pos,1,1,831.5
sub-048,315,1,TRUE,left,approach,neg,insect16_crop.jpg,4,32,TRUE,314,1,3163.5088,48,EAT                                    DON'T EAT,3162.8132,3150.7197,2880.3594,left,1,left,left,eat,eat,avoid,pos,avoid-pos,1,1,695.6000000000931
sub-048,316,1,FALSE,left,avoid,pos,meat4_crop.jpg,4,32,TRUE,315,2,3165.5544,48,EAT                                    DON'T EAT,3164.8318,3150.7197,2880.3594,left,2,right,right,not_eat,not_eat,avoid,pos,avoid-pos,1,1,722.6000000000931
sub-048,317,1,TRUE,left,approach,pos,cake7_crop.jpg,4,32,TRUE,316,1,3167.5806,48,EAT                                    DON'T EAT,3166.8499,3150.7197,2880.3594,left,1,left,left,eat,eat,avoid,pos,avoid-pos,1,1,730.6999999992549
sub-048,318,1,FALSE,left,avoid,pos,meat31_crop.jpg,4,32,TRUE,317,2,3169.6296,48,EAT                                    DON'T EAT,3168.8682,3150.7197,2880.3594,left,2,right,right,not_eat,not_eat,avoid,pos,avoid-pos,1,1,761.4000000003725
sub-048,319,1,FALSE,left,avoid,pos,meat9_crop.jpg,4,32,TRUE,318,2,3171.742,48,EAT                                    DON'T EAT,3170.8867,3150.7197,2880.3594,left,2,right,right,not_eat,not_eat,avoid,pos,avoid-pos,1,1,855.2999999998137
sub-048,320,1,FALSE,left,avoid,pos,meat34_crop.jpg,4,32,TRUE,319,2,3173.663,48,EAT                                    DON'T EAT,3172.9048,3150.7197,2880.3594,left,2,right,right,not_eat,not_eat,avoid,pos,avoid-pos,1,1,758.2000000001863
