TrialNumber,n_block,catch,hand,mot,val,stim_name,run_number,num_block,ran,order,response,RT,Subject number,n_b,left_side_resp_label,trial_onset,blk_instr_onset,baseline_onset
1,3,True,left,approach,pos,cake23_crop.jpg,1,1,1.0,0.0,1,1886.2181,40.0,1.0,EAT                                    DON'T EAT,1884.9675,1880.9476,1867.5125
2,3,False,left,avoid,pos,meat9_crop.jpg,1,1,1.0,1.0,2,1888.577,40.0,1.0,EAT                                    DON'T EAT,1886.9858,1880.9476,1867.5125
3,3,False,left,avoid,pos,meat39_crop.jpg,1,1,1.0,2.0,2,1889.9612,40.0,1.0,EAT                                    DON'T EAT,1889.0042,1880.9476,1867.5125
4,3,False,left,avoid,pos,meat21_crop.jpg,1,1,1.0,3.0,2,1891.7937,40.0,1.0,EAT                                    DON'T EAT,1891.0255,1880.9476,1867.5125
5,3,False,left,avoid,pos,meat25_crop.jpg,1,1,1.0,4.0,2,1894.2838,40.0,1.0,EAT                                    DON'T EAT,1893.0431,1880.9476,1867.5125
6,3,False,left,avoid,pos,meat37_crop.jpg,1,1,1.0,5.0,2,1896.0721,40.0,1.0,EAT                                    DON'T EAT,1895.0592,1880.9476,1867.5125
7,3,True,left,approach,neg,insect18_crop.jpg,1,1,1.0,6.0,1,1897.8673,40.0,1.0,EAT                                    DON'T EAT,1897.0778,1880.9476,1867.5125
8,3,False,left,avoid,pos,meat35_crop.jpg,1,1,1.0,7.0,2,1899.9401,40.0,1.0,EAT                                    DON'T EAT,1899.0958,1880.9476,1867.5125
9,3,False,left,avoid,pos,meat30_crop.jpg,1,1,1.0,8.0,2,1902.0131,40.0,1.0,EAT                                    DON'T EAT,1901.1141,1880.9476,1867.5125
10,3,False,left,avoid,pos,meat29_crop.jpg,1,1,1.0,9.0,2,1903.8125,40.0,1.0,EAT                                    DON'T EAT,1903.1327,1880.9476,1867.5125
11,1,False,right,avoid,neg,fungus10_crop.jpg,1,2,1.0,10.0,2,1922.9655,40.0,2.0,EAT                                    DON'T EAT,1921.5646,1917.5613,1867.5125
12,1,False,right,avoid,neg,fungus20_crop.jpg,1,2,1.0,11.0,2,1925.1172,40.0,2.0,EAT                                    DON'T EAT,1923.583,1917.5613,1867.5125
13,1,True,right,approach,pos,cake36_crop.jpg,1,2,1.0,12.0,1,1927.0763,40.0,2.0,EAT                                    DON'T EAT,1925.6013,1917.5613,1867.5125
14,1,False,right,avoid,neg,fungus13_crop.jpg,1,2,1.0,13.0,2,1928.9539,40.0,2.0,EAT                                    DON'T EAT,1927.6196,1917.5613,1867.5125
15,1,False,right,avoid,neg,fungus3_crop.jpg,1,2,1.0,14.0,2,1930.8569,40.0,2.0,EAT                                    DON'T EAT,1929.6381,1917.5613,1867.5125
16,1,False,right,avoid,neg,fungus40_crop.jpg,1,2,1.0,15.0,2,1932.8424,40.0,2.0,EAT                                    DON'T EAT,1931.6564,1917.5613,1867.5125
17,1,False,right,avoid,neg,fungus7_crop.jpg,1,2,1.0,16.0,2,1935.2938,40.0,2.0,EAT                                    DON'T EAT,1933.6747,1917.5613,1867.5125
18,1,False,right,avoid,neg,fungus15_crop.jpg,1,2,1.0,17.0,2,1936.7311,40.0,2.0,EAT                                    DON'T EAT,1935.6931,1917.5613,1867.5125
19,1,False,right,avoid,neg,fungus31_crop.jpg,1,2,1.0,18.0,2,1938.4984,40.0,2.0,EAT                                    DON'T EAT,1937.7114,1917.5613,1867.5125
20,1,True,right,approach,neg,insect10_crop.jpg,1,2,1.0,19.0,1,1940.7181,40.0,2.0,EAT                                    DON'T EAT,1939.7297,1917.5613,1867.5125
21,2,False,right,avoid,neg,fungus5_crop.jpg,1,3,1.0,20.0,2,1957.8531,40.0,3.0,EAT                                    DON'T EAT,1956.8438,1952.8406,1867.5125
22,2,False,right,avoid,neg,fungus12_crop.jpg,1,3,1.0,21.0,2,1959.685,40.0,3.0,EAT                                    DON'T EAT,1958.8622,1952.8406,1867.5125
23,2,False,right,avoid,neg,fungus14_crop.jpg,1,3,1.0,22.0,2,1961.9117,40.0,3.0,EAT                                    DON'T EAT,1960.8805,1952.8406,1867.5125
24,2,False,right,avoid,neg,fungus1_crop.jpg,1,3,1.0,23.0,2,1963.5022,40.0,3.0,EAT                                    DON'T EAT,1962.8989,1952.8406,1867.5125
25,2,False,right,avoid,neg,fungus36_crop.jpg,1,3,1.0,24.0,2,1965.8492,40.0,3.0,EAT                                    DON'T EAT,1964.9172,1952.8406,1867.5125
26,2,True,right,approach,neg,insect27_crop.jpg,1,3,1.0,25.0,1,1968.1293,40.0,3.0,EAT                                    DON'T EAT,1966.9357,1952.8406,1867.5125
27,2,False,right,avoid,neg,fungus38_crop.jpg,1,3,1.0,26.0,2,1969.9719,40.0,3.0,EAT                                    DON'T EAT,1968.954,1952.8406,1867.5125
28,2,False,right,avoid,neg,fungus2_crop.jpg,1,3,1.0,27.0,2,1971.8435,40.0,3.0,EAT                                    DON'T EAT,1970.9723,1952.8406,1867.5125
29,2,True,right,approach,pos,cake5_crop.jpg,1,3,1.0,28.0,1,1974.0287,40.0,3.0,EAT                                    DON'T EAT,1972.9907,1952.8406,1867.5125
30,2,False,right,avoid,neg,fungus4_crop.jpg,1,3,1.0,29.0,2,1975.905,40.0,3.0,EAT                                    DON'T EAT,1975.009,1952.8406,1867.5125
31,0,False,left,approach,pos,cake16_crop.jpg,1,4,1.0,30.0,1,1994.9088,40.0,4.0,EAT                                    DON'T EAT,1993.8745,1989.8547,1867.5125
32,0,False,left,approach,pos,cake25_crop.jpg,1,4,1.0,31.0,1,1996.6215,40.0,4.0,EAT                                    DON'T EAT,1995.893,1989.8547,1867.5125
33,0,False,left,approach,pos,cake26_crop.jpg,1,4,1.0,32.0,1,1998.5146,40.0,4.0,EAT                                    DON'T EAT,1997.9113,1989.8547,1867.5125
34,0,False,left,approach,pos,cake35_crop.jpg,1,4,1.0,33.0,1,2000.5209,40.0,4.0,EAT                                    DON'T EAT,1999.9297,1989.8547,1867.5125
35,0,False,left,approach,pos,cake4_crop.jpg,1,4,1.0,34.0,1,2002.6814,40.0,4.0,EAT                                    DON'T EAT,2001.948,1989.8547,1867.5125
36,0,True,left,avoid,pos,meat27_crop.jpg,1,4,1.0,35.0,2,2004.9965,40.0,4.0,EAT                                    DON'T EAT,2003.9664,1989.8547,1867.5125
37,0,True,left,avoid,neg,fungus18_crop.jpg,1,4,1.0,36.0,2,2007.2142,40.0,4.0,EAT                                    DON'T EAT,2005.9847,1989.8547,1867.5125
38,0,False,left,approach,pos,cake33_crop.jpg,1,4,1.0,37.0,1,2009.1698,40.0,4.0,EAT                                    DON'T EAT,2008.003,1989.8547,1867.5125
39,0,False,left,approach,pos,cake40_crop.jpg,1,4,1.0,38.0,1,2010.7047,40.0,4.0,EAT                                    DON'T EAT,2010.0215,1989.8547,1867.5125
40,0,False,left,approach,pos,cake8_crop.jpg,1,4,1.0,39.0,1,2012.7839,40.0,4.0,EAT                                    DON'T EAT,2012.0398,1989.8547,1867.5125
41,3,False,right,approach,pos,cake28_crop.jpg,1,5,1.0,40.0,1,2029.4824,40.0,5.0,EAT                                    DON'T EAT,2028.42,2024.4001,1867.5125
42,3,False,right,approach,pos,cake14_crop.jpg,1,5,1.0,41.0,1,2031.1155,40.0,5.0,EAT                                    DON'T EAT,2030.4384,2024.4001,1867.5125
43,3,False,right,approach,pos,cake20_crop.jpg,1,5,1.0,42.0,1,2033.1442,40.0,5.0,EAT                                    DON'T EAT,2032.4568,2024.4001,1867.5125
44,3,False,right,approach,pos,cake38_crop.jpg,1,5,1.0,43.0,1,2035.1733,40.0,5.0,EAT                                    DON'T EAT,2034.4751,2024.4001,1867.5125
45,3,True,right,avoid,neg,fungus11_crop.jpg,1,5,1.0,44.0,2,2037.8092,40.0,5.0,EAT                                    DON'T EAT,2036.4934,2024.4001,1867.5125
46,3,False,right,approach,pos,cake40_crop.jpg,1,5,1.0,45.0,1,2039.3855,40.0,5.0,EAT                                    DON'T EAT,2038.5117,2024.4001,1867.5125
47,3,False,right,approach,pos,cake24_crop.jpg,1,5,1.0,46.0,1,2041.1539,40.0,5.0,EAT                                    DON'T EAT,2040.5302,2024.4001,1867.5125
48,3,True,right,avoid,pos,meat10_crop.jpg,1,5,1.0,47.0,2,2043.521,40.0,5.0,EAT                                    DON'T EAT,2042.5485,2024.4001,1867.5125
49,3,False,right,approach,pos,cake9_crop.jpg,1,5,1.0,48.0,1,2045.6067,40.0,5.0,EAT                                    DON'T EAT,2044.5668,2024.4001,1867.5125
50,3,False,right,approach,pos,cake21_crop.jpg,1,5,1.0,49.0,1,2047.5316,40.0,5.0,EAT                                    DON'T EAT,2046.5852,2024.4001,1867.5125
51,1,True,left,avoid,pos,meat26_crop.jpg,1,6,1.0,50.0,2,2067.743,40.0,6.0,EAT                                    DON'T EAT,2066.635,2062.615,1867.5125
52,1,False,left,approach,pos,cake38_crop.jpg,1,6,1.0,51.0,1,2069.4287,40.0,6.0,EAT                                    DON'T EAT,2068.6533,2062.615,1867.5125
53,1,False,left,approach,pos,cake6_crop.jpg,1,6,1.0,52.0,1,2071.3726,40.0,6.0,EAT                                    DON'T EAT,2070.6719,2062.615,1867.5125
54,1,False,left,approach,pos,cake18_crop.jpg,1,6,1.0,53.0,1,2073.317,40.0,6.0,EAT                                    DON'T EAT,2072.6902,2062.615,1867.5125
55,1,False,left,approach,pos,cake14_crop.jpg,1,6,1.0,54.0,1,2075.328,40.0,6.0,EAT                                    DON'T EAT,2074.7085,2062.615,1867.5125
56,1,True,left,avoid,neg,fungus33_crop.jpg,1,6,1.0,55.0,2,2077.754,40.0,6.0,EAT                                    DON'T EAT,2076.7268,2062.615,1867.5125
57,1,False,left,approach,pos,cake7_crop.jpg,1,6,1.0,56.0,1,2079.491,40.0,6.0,EAT                                    DON'T EAT,2078.745,2062.615,1867.5125
58,1,False,left,approach,pos,cake17_crop.jpg,1,6,1.0,57.0,1,2081.4185,40.0,6.0,EAT                                    DON'T EAT,2080.7634,2062.615,1867.5125
59,1,False,left,approach,pos,cake2_crop.jpg,1,6,1.0,58.0,1,2083.3389,40.0,6.0,EAT                                    DON'T EAT,2082.782,2062.615,1867.5125
60,1,False,left,approach,pos,cake24_crop.jpg,1,6,1.0,59.0,1,2085.307,40.0,6.0,EAT                                    DON'T EAT,2084.8003,2062.615,1867.5125
61,2,False,right,approach,pos,cake7_crop.jpg,1,7,1.0,60.0,1,2105.4268,40.0,7.0,EAT                                    DON'T EAT,2104.6667,2100.6467,1867.5125
62,2,True,right,avoid,neg,fungus24_crop.jpg,1,7,1.0,61.0,2,2107.599,40.0,7.0,EAT                                    DON'T EAT,2106.685,2100.6467,1867.5125
63,2,False,right,approach,pos,cake31_crop.jpg,1,7,1.0,62.0,1,2109.4478,40.0,7.0,EAT                                    DON'T EAT,2108.7034,2100.6467,1867.5125
64,2,True,right,avoid,pos,meat9_crop.jpg,1,7,1.0,63.0,2,2111.7483,40.0,7.0,EAT                                    DON'T EAT,2110.7217,2100.6467,1867.5125
65,2,False,right,approach,pos,cake15_crop.jpg,1,7,1.0,64.0,1,2113.598,40.0,7.0,EAT                                    DON'T EAT,2112.74,2100.6467,1867.5125
66,2,False,right,approach,pos,cake11_crop.jpg,1,7,1.0,65.0,1,2115.5916,40.0,7.0,EAT                                    DON'T EAT,2114.7583,2100.6467,1867.5125
67,2,False,right,approach,pos,cake16_crop.jpg,1,7,1.0,66.0,1,2117.3037,40.0,7.0,EAT                                    DON'T EAT,2116.7766,2100.6467,1867.5125
68,2,False,right,approach,pos,cake18_crop.jpg,1,7,1.0,67.0,1,2119.3545,40.0,7.0,EAT                                    DON'T EAT,2118.7952,2100.6467,1867.5125
69,2,False,right,approach,pos,cake39_crop.jpg,1,7,1.0,68.0,1,2121.427,40.0,7.0,EAT                                    DON'T EAT,2120.8135,2100.6467,1867.5125
70,2,False,right,approach,pos,cake10_crop.jpg,1,7,1.0,69.0,1,2123.8523,40.0,7.0,EAT                                    DON'T EAT,2122.8318,2100.6467,1867.5125
71,3,False,right,approach,neg,insect28_crop.jpg,1,8,1.0,70.0,1,2141.8599,40.0,8.0,EAT                                    DON'T EAT,2140.7966,2136.7766,1867.5125
72,3,False,right,approach,neg,insect9_crop.jpg,1,8,1.0,71.0,1,2143.3884,40.0,8.0,EAT                                    DON'T EAT,2142.8152,2136.7766,1867.5125
73,3,False,right,approach,neg,insect16_crop.jpg,1,8,1.0,72.0,1,2145.3975,40.0,8.0,EAT                                    DON'T EAT,2144.8335,2136.7766,1867.5125
74,3,False,right,approach,neg,insect26_crop.jpg,1,8,1.0,73.0,1,2147.4973,40.0,8.0,EAT                                    DON'T EAT,2146.8518,2136.7766,1867.5125
75,3,False,right,approach,neg,insect11_crop.jpg,1,8,1.0,74.0,1,2149.4321,40.0,8.0,EAT                                    DON'T EAT,2148.87,2136.7766,1867.5125
76,3,False,right,approach,neg,insect40_crop.jpg,1,8,1.0,75.0,1,2151.5015,40.0,8.0,EAT                                    DON'T EAT,2150.8884,2136.7766,1867.5125
77,3,True,right,avoid,neg,fungus35_crop.jpg,1,8,1.0,76.0,2,2153.8396,40.0,8.0,EAT                                    DON'T EAT,2152.9067,2136.7766,1867.5125
78,3,False,right,approach,neg,insect29_crop.jpg,1,8,1.0,77.0,1,2155.5757,40.0,8.0,EAT                                    DON'T EAT,2154.9248,2136.7766,1867.5125
79,3,False,right,approach,neg,insect23_crop.jpg,1,8,1.0,78.0,1,2157.4358,40.0,8.0,EAT                                    DON'T EAT,2156.9434,2136.7766,1867.5125
80,3,True,right,avoid,pos,meat34_crop.jpg,1,8,1.0,79.0,2,2160.836,40.0,8.0,EAT                                    DON'T EAT,2158.9617,2136.7766,1867.5125
81,2,False,right,avoid,pos,meat4_crop.jpg,2,9,1.0,80.0,2,2262.5012,40.0,9.0,EAT                                    DON'T EAT,2261.3135,2257.2935,2245.1685
82,2,False,right,avoid,pos,meat11_crop.jpg,2,9,1.0,81.0,2,2264.1416,40.0,9.0,EAT                                    DON'T EAT,2263.3318,2257.2935,2245.1685
83,2,True,right,approach,neg,insect17_crop.jpg,2,9,1.0,82.0,1,2266.0603,40.0,9.0,EAT                                    DON'T EAT,2265.35,2257.2935,2245.1685
84,2,False,right,avoid,pos,meat17_crop.jpg,2,9,1.0,83.0,2,2268.1665,40.0,9.0,EAT                                    DON'T EAT,2267.3684,2257.2935,2245.1685
85,2,True,right,approach,pos,cake26_crop.jpg,2,9,1.0,84.0,1,2270.0889,40.0,9.0,EAT                                    DON'T EAT,2269.387,2257.2935,2245.1685
86,2,False,right,avoid,pos,meat28_crop.jpg,2,9,1.0,85.0,2,2272.2354,40.0,9.0,EAT                                    DON'T EAT,2271.4053,2257.2935,2245.1685
87,2,False,right,avoid,pos,meat36_crop.jpg,2,9,1.0,86.0,2,2274.2014,40.0,9.0,EAT                                    DON'T EAT,2273.4236,2257.2935,2245.1685
88,2,False,right,avoid,pos,meat13_crop.jpg,2,9,1.0,87.0,2,2276.2202,40.0,9.0,EAT                                    DON'T EAT,2275.442,2257.2935,2245.1685
89,2,False,right,avoid,pos,meat16_crop.jpg,2,9,1.0,88.0,2,2278.2065,40.0,9.0,EAT                                    DON'T EAT,2277.4602,2257.2935,2245.1685
90,2,False,right,avoid,pos,meat18_crop.jpg,2,9,1.0,89.0,2,2280.2686,40.0,9.0,EAT                                    DON'T EAT,2279.4785,2257.2935,2245.1685
91,1,False,right,approach,neg,insect30_crop.jpg,2,10,1.0,90.0,1,2297.7756,40.0,10.0,EAT                                    DON'T EAT,2296.8765,2292.8564,2245.1685
92,1,False,right,approach,neg,insect7_crop.jpg,2,10,1.0,91.0,1,2299.5847,40.0,10.0,EAT                                    DON'T EAT,2298.8948,2292.8564,2245.1685
93,1,True,right,avoid,neg,fungus16_crop.jpg,2,10,1.0,92.0,2,2302.086,40.0,10.0,EAT                                    DON'T EAT,2300.913,2292.8564,2245.1685
94,1,False,right,approach,neg,insect24_crop.jpg,2,10,1.0,93.0,1,2303.6858,40.0,10.0,EAT                                    DON'T EAT,2302.9314,2292.8564,2245.1685
95,1,False,right,approach,neg,insect20_crop.jpg,2,10,1.0,94.0,1,2305.6794,40.0,10.0,EAT                                    DON'T EAT,2304.9497,2292.8564,2245.1685
96,1,False,right,approach,neg,insect25_crop.jpg,2,10,1.0,95.0,1,2307.5269,40.0,10.0,EAT                                    DON'T EAT,2306.968,2292.8564,2245.1685
97,1,True,right,avoid,pos,meat20_crop.jpg,2,10,1.0,96.0,2,2309.9438,40.0,10.0,EAT                                    DON'T EAT,2308.9863,2292.8564,2245.1685
98,1,False,right,approach,neg,insect14_crop.jpg,2,10,1.0,97.0,1,2311.8105,40.0,10.0,EAT                                    DON'T EAT,2311.005,2292.8564,2245.1685
99,1,False,right,approach,neg,insect13_crop.jpg,2,10,1.0,98.0,1,2313.5833,40.0,10.0,EAT                                    DON'T EAT,2313.0232,2292.8564,2245.1685
100,1,False,right,approach,neg,insect31_crop.jpg,2,10,1.0,99.0,1,2315.6016,40.0,10.0,EAT                                    DON'T EAT,2315.0415,2292.8564,2245.1685
101,0,False,right,avoid,pos,meat14_crop.jpg,2,11,1.0,100.0,2,2333.0388,40.0,11.0,EAT                                    DON'T EAT,2332.0056,2327.9856,2245.1685
102,0,False,right,avoid,pos,meat35_crop.jpg,2,11,1.0,101.0,2,2334.6936,40.0,11.0,EAT                                    DON'T EAT,2334.024,2327.9856,2245.1685
103,0,False,right,avoid,pos,meat33_crop.jpg,2,11,1.0,102.0,2,2336.9297,40.0,11.0,EAT                                    DON'T EAT,2336.0422,2327.9856,2245.1685
104,0,False,right,avoid,pos,meat39_crop.jpg,2,11,1.0,103.0,2,2338.6948,40.0,11.0,EAT                                    DON'T EAT,2338.0605,2327.9856,2245.1685
105,0,True,right,approach,neg,insect21_crop.jpg,2,11,1.0,104.0,1,2340.7961,40.0,11.0,EAT                                    DON'T EAT,2340.0789,2327.9856,2245.1685
106,0,True,right,approach,pos,cake37_crop.jpg,2,11,1.0,105.0,1,2342.9446,40.0,11.0,EAT                                    DON'T EAT,2342.0974,2327.9856,2245.1685
107,0,False,right,avoid,pos,meat3_crop.jpg,2,11,1.0,106.0,2,2344.9358,40.0,11.0,EAT                                    DON'T EAT,2344.1155,2327.9856,2245.1685
108,0,False,right,avoid,pos,meat1_crop.jpg,2,11,1.0,107.0,2,2347.064,40.0,11.0,EAT                                    DON'T EAT,2346.134,2327.9856,2245.1685
109,0,False,right,avoid,pos,meat7_crop.jpg,2,11,1.0,108.0,2,2348.8088,40.0,11.0,EAT                                    DON'T EAT,2348.1523,2327.9856,2245.1685
110,0,False,right,avoid,pos,meat15_crop.jpg,2,11,1.0,109.0,2,2350.8481,40.0,11.0,EAT                                    DON'T EAT,2350.1707,2327.9856,2245.1685
111,1,False,right,approach,pos,cake6_crop.jpg,2,12,1.0,110.0,1,2370.148,40.0,12.0,EAT                                    DON'T EAT,2369.1865,2365.1665,2245.1685
112,1,False,right,approach,pos,cake27_crop.jpg,2,12,1.0,111.0,1,2371.8145,40.0,12.0,EAT                                    DON'T EAT,2371.2048,2365.1665,2245.1685
113,1,False,right,approach,pos,cake12_crop.jpg,2,12,1.0,112.0,1,2373.7915,40.0,12.0,EAT                                    DON'T EAT,2373.2231,2365.1665,2245.1685
114,1,False,right,approach,pos,cake25_crop.jpg,2,12,1.0,113.0,1,2375.8142,40.0,12.0,EAT                                    DON'T EAT,2375.2415,2365.1665,2245.1685
115,1,True,right,avoid,neg,fungus6_crop.jpg,2,12,1.0,114.0,2,2378.1975,40.0,12.0,EAT                                    DON'T EAT,2377.2598,2365.1665,2245.1685
116,1,False,right,approach,pos,cake23_crop.jpg,2,12,1.0,115.0,1,2380.199,40.0,12.0,EAT                                    DON'T EAT,2379.278,2365.1665,2245.1685
117,1,False,right,approach,pos,cake29_crop.jpg,2,12,1.0,116.0,1,2381.9766,40.0,12.0,EAT                                    DON'T EAT,2381.2964,2365.1665,2245.1685
118,1,False,right,approach,pos,cake33_crop.jpg,2,12,1.0,117.0,1,2383.9504,40.0,12.0,EAT                                    DON'T EAT,2383.3147,2365.1665,2245.1685
119,1,True,right,avoid,pos,meat32_crop.jpg,2,12,1.0,118.0,2,2386.2656,40.0,12.0,EAT                                    DON'T EAT,2385.3333,2365.1665,2245.1685
120,1,False,right,approach,pos,cake35_crop.jpg,2,12,1.0,119.0,1,2388.141,40.0,12.0,EAT                                    DON'T EAT,2387.3516,2365.1665,2245.1685
121,2,False,left,avoid,neg,fungus2_crop.jpg,2,13,1.0,120.0,2,2405.431,40.0,13.0,EAT                                    DON'T EAT,2404.4492,2400.429,2245.1685
122,2,True,left,approach,neg,insect2_crop.jpg,2,13,1.0,121.0,1,2407.4053,40.0,13.0,EAT                                    DON'T EAT,2406.4673,2400.429,2245.1685
123,2,False,left,avoid,neg,fungus29_crop.jpg,2,13,1.0,122.0,2,2409.4668,40.0,13.0,EAT                                    DON'T EAT,2408.4858,2400.429,2245.1685
124,2,False,left,avoid,neg,fungus5_crop.jpg,2,13,1.0,123.0,2,2411.3103,40.0,13.0,EAT                                    DON'T EAT,2410.5042,2400.429,2245.1685
125,2,False,left,avoid,neg,fungus1_crop.jpg,2,13,1.0,124.0,2,2413.127,40.0,13.0,EAT                                    DON'T EAT,2412.5225,2400.429,2245.1685
126,2,True,left,approach,pos,cake39_crop.jpg,2,13,1.0,125.0,1,2415.2534,40.0,13.0,EAT                                    DON'T EAT,2414.5408,2400.429,2245.1685
127,2,False,left,avoid,neg,fungus11_crop.jpg,2,13,1.0,126.0,2,2417.4119,40.0,13.0,EAT                                    DON'T EAT,2416.559,2400.429,2245.1685
128,2,False,left,avoid,neg,fungus30_crop.jpg,2,13,1.0,127.0,2,2419.4915,40.0,13.0,EAT                                    DON'T EAT,2418.5774,2400.429,2245.1685
129,2,False,left,avoid,neg,fungus8_crop.jpg,2,13,1.0,128.0,2,2421.574,40.0,13.0,EAT                                    DON'T EAT,2420.596,2400.429,2245.1685
130,2,False,left,avoid,neg,fungus12_crop.jpg,2,13,1.0,129.0,2,2423.4392,40.0,13.0,EAT                                    DON'T EAT,2422.614,2400.429,2245.1685
131,0,True,left,avoid,pos,meat11_crop.jpg,2,14,1.0,130.0,2,2440.1147,40.0,14.0,EAT                                    DON'T EAT,2439.1277,2435.108,2245.1685
132,0,False,left,approach,neg,insect40_crop.jpg,2,14,1.0,131.0,1,2442.002,40.0,14.0,EAT                                    DON'T EAT,2441.146,2435.108,2245.1685
133,0,False,left,approach,neg,insect20_crop.jpg,2,14,1.0,132.0,1,2443.7788,40.0,14.0,EAT                                    DON'T EAT,2443.1646,2435.108,2245.1685
134,0,False,left,approach,neg,insect27_crop.jpg,2,14,1.0,133.0,1,2445.819,40.0,14.0,EAT                                    DON'T EAT,2445.1829,2435.108,2245.1685
135,0,False,left,approach,neg,insect32_crop.jpg,2,14,1.0,134.0,1,2447.7388,40.0,14.0,EAT                                    DON'T EAT,2447.2012,2435.108,2245.1685
136,0,False,left,approach,neg,insect33_crop.jpg,2,14,1.0,135.0,1,2449.7244,40.0,14.0,EAT                                    DON'T EAT,2449.2195,2435.108,2245.1685
137,0,False,left,approach,neg,insect19_crop.jpg,2,14,1.0,136.0,1,2451.8726,40.0,14.0,EAT                                    DON'T EAT,2451.238,2435.108,2245.1685
138,0,False,left,approach,neg,insect31_crop.jpg,2,14,1.0,137.0,1,2453.8079,40.0,14.0,EAT                                    DON'T EAT,2453.2563,2435.108,2245.1685
139,0,True,left,avoid,neg,fungus23_crop.jpg,2,14,1.0,138.0,2,2456.1804,40.0,14.0,EAT                                    DON'T EAT,2455.2747,2435.108,2245.1685
140,0,False,left,approach,neg,insect7_crop.jpg,2,14,1.0,139.0,1,2457.9612,40.0,14.0,EAT                                    DON'T EAT,2457.293,2435.108,2245.1685
141,0,False,left,avoid,neg,fungus36_crop.jpg,2,15,1.0,140.0,2,2477.8623,40.0,15.0,EAT                                    DON'T EAT,2476.876,2472.856,2245.1685
142,0,False,left,avoid,neg,fungus16_crop.jpg,2,15,1.0,141.0,2,2479.6062,40.0,15.0,EAT                                    DON'T EAT,2478.894,2472.856,2245.1685
143,0,False,left,avoid,neg,fungus17_crop.jpg,2,15,1.0,142.0,2,2481.6963,40.0,15.0,EAT                                    DON'T EAT,2480.9126,2472.856,2245.1685
144,0,False,left,avoid,neg,fungus6_crop.jpg,2,15,1.0,143.0,2,2483.5952,40.0,15.0,EAT                                    DON'T EAT,2482.9307,2472.856,2245.1685
145,0,True,left,approach,neg,insect39_crop.jpg,2,15,1.0,144.0,1,2485.7598,40.0,15.0,EAT                                    DON'T EAT,2484.9492,2472.856,2245.1685
146,0,False,left,avoid,neg,fungus31_crop.jpg,2,15,1.0,145.0,2,2487.7424,40.0,15.0,EAT                                    DON'T EAT,2486.9675,2472.856,2245.1685
147,0,False,left,avoid,neg,fungus24_crop.jpg,2,15,1.0,146.0,2,2489.6091,40.0,15.0,EAT                                    DON'T EAT,2488.9858,2472.856,2245.1685
148,0,True,left,approach,pos,cake32_crop.jpg,2,15,1.0,147.0,1,2491.9768,40.0,15.0,EAT                                    DON'T EAT,2491.0044,2472.856,2245.1685
149,0,False,left,avoid,neg,fungus39_crop.jpg,2,15,1.0,148.0,2,2493.9126,40.0,15.0,EAT                                    DON'T EAT,2493.0227,2472.856,2245.1685
150,0,False,left,avoid,neg,fungus34_crop.jpg,2,15,1.0,149.0,2,2495.907,40.0,15.0,EAT                                    DON'T EAT,2495.041,2472.856,2245.1685
151,3,False,right,avoid,neg,fungus9_crop.jpg,2,16,1.0,150.0,2,2513.6897,40.0,16.0,EAT                                    DON'T EAT,2512.6724,2508.6523,2245.1685
152,3,False,right,avoid,neg,fungus19_crop.jpg,2,16,1.0,151.0,2,2515.3196,40.0,16.0,EAT                                    DON'T EAT,2514.6907,2508.6523,2245.1685
153,3,False,right,avoid,neg,fungus33_crop.jpg,2,16,1.0,152.0,2,2517.4014,40.0,16.0,EAT                                    DON'T EAT,2516.709,2508.6523,2245.1685
154,3,True,right,approach,neg,insect12_crop.jpg,2,16,1.0,153.0,1,2519.4592,40.0,16.0,EAT                                    DON'T EAT,2518.7273,2508.6523,2245.1685
155,3,False,right,avoid,neg,fungus8_crop.jpg,2,16,1.0,154.0,2,2521.6536,40.0,16.0,EAT                                    DON'T EAT,2520.7456,2508.6523,2245.1685
156,3,False,right,avoid,neg,fungus28_crop.jpg,2,16,1.0,155.0,2,2523.3638,40.0,16.0,EAT                                    DON'T EAT,2522.764,2508.6523,2245.1685
157,3,False,right,avoid,neg,fungus17_crop.jpg,2,16,1.0,156.0,2,2525.4836,40.0,16.0,EAT                                    DON'T EAT,2524.7825,2508.6523,2245.1685
158,3,False,right,avoid,neg,fungus26_crop.jpg,2,16,1.0,157.0,2,2527.425,40.0,16.0,EAT                                    DON'T EAT,2526.8008,2508.6523,2245.1685
159,3,True,right,approach,pos,cake4_crop.jpg,2,16,1.0,158.0,1,2529.5647,40.0,16.0,EAT                                    DON'T EAT,2528.819,2508.6523,2245.1685
160,3,False,right,avoid,neg,fungus30_crop.jpg,2,16,1.0,159.0,2,2531.5679,40.0,16.0,EAT                                    DON'T EAT,2530.8374,2508.6523,2245.1685
161,3,False,left,approach,neg,insect13_crop.jpg,3,17,1.0,160.0,1,2629.9785,40.0,17.0,EAT                                    DON'T EAT,2629.1858,2625.1655,2612.4106
162,3,False,left,approach,neg,insect26_crop.jpg,3,17,1.0,161.0,1,2632.2344,40.0,17.0,EAT                                    DON'T EAT,2631.204,2625.1655,2612.4106
163,3,True,left,avoid,neg,fungus27_crop.jpg,3,17,1.0,162.0,2,2634.1804,40.0,17.0,EAT                                    DON'T EAT,2633.2224,2625.1655,2612.4106
164,3,False,left,approach,neg,insect23_crop.jpg,3,17,1.0,163.0,1,2635.8662,40.0,17.0,EAT                                    DON'T EAT,2635.2407,2625.1655,2612.4106
165,3,False,left,approach,neg,insect14_crop.jpg,3,17,1.0,164.0,1,2638.0361,40.0,17.0,EAT                                    DON'T EAT,2637.259,2625.1655,2612.4106
166,3,True,left,avoid,pos,meat4_crop.jpg,3,17,1.0,165.0,2,2640.3416,40.0,17.0,EAT                                    DON'T EAT,2639.2776,2625.1655,2612.4106
167,3,False,left,approach,neg,insect11_crop.jpg,3,17,1.0,166.0,1,2641.945,40.0,17.0,EAT                                    DON'T EAT,2641.296,2625.1655,2612.4106
168,3,False,left,approach,neg,insect35_crop.jpg,3,17,1.0,167.0,1,2643.7854,40.0,17.0,EAT                                    DON'T EAT,2643.314,2625.1655,2612.4106
169,3,False,left,approach,neg,insect4_crop.jpg,3,17,1.0,168.0,1,2645.9526,40.0,17.0,EAT                                    DON'T EAT,2645.3325,2625.1655,2612.4106
170,3,False,left,approach,neg,insect12_crop.jpg,3,17,1.0,169.0,1,2647.834,40.0,17.0,EAT                                    DON'T EAT,2647.3508,2625.1655,2612.4106
171,3,False,left,avoid,neg,fungus20_crop.jpg,3,18,1.0,170.0,2,2667.1785,40.0,18.0,EAT                                    DON'T EAT,2666.083,2662.063,2612.4106
172,3,False,left,avoid,neg,fungus13_crop.jpg,3,18,1.0,171.0,2,2668.8557,40.0,18.0,EAT                                    DON'T EAT,2668.1016,2662.063,2612.4106
173,3,False,left,avoid,neg,fungus21_crop.jpg,3,18,1.0,172.0,2,2670.7312,40.0,18.0,EAT                                    DON'T EAT,2670.1199,2662.063,2612.4106
174,3,True,left,approach,pos,cake27_crop.jpg,3,18,1.0,173.0,1,2672.9446,40.0,18.0,EAT                                    DON'T EAT,2672.1382,2662.063,2612.4106
175,3,False,left,avoid,neg,fungus22_crop.jpg,3,18,1.0,174.0,2,2674.8591,40.0,18.0,EAT                                    DON'T EAT,2674.1565,2662.063,2612.4106
176,3,False,left,avoid,neg,fungus10_crop.jpg,3,18,1.0,175.0,2,2676.8398,40.0,18.0,EAT                                    DON'T EAT,2676.1748,2662.063,2612.4106
177,3,False,left,avoid,neg,fungus15_crop.jpg,3,18,1.0,176.0,2,2678.9004,40.0,18.0,EAT                                    DON'T EAT,2678.193,2662.063,2612.4106
178,3,False,left,avoid,neg,fungus4_crop.jpg,3,18,1.0,177.0,2,2680.942,40.0,18.0,EAT                                    DON'T EAT,2680.2114,2662.063,2612.4106
179,3,False,left,avoid,neg,fungus37_crop.jpg,3,18,1.0,178.0,2,2683.0596,40.0,18.0,EAT                                    DON'T EAT,2682.23,2662.063,2612.4106
180,3,True,left,approach,neg,insect24_crop.jpg,3,18,1.0,179.0,1,2685.108,40.0,18.0,EAT                                    DON'T EAT,2684.2483,2662.063,2612.4106
181,1,False,left,avoid,neg,fungus7_crop.jpg,3,19,1.0,180.0,2,2701.5256,40.0,19.0,EAT                                    DON'T EAT,2700.4949,2696.475,2612.4106
182,1,False,left,avoid,neg,fungus35_crop.jpg,3,19,1.0,181.0,2,2703.314,40.0,19.0,EAT                                    DON'T EAT,2702.5132,2696.475,2612.4106
183,1,False,left,avoid,neg,fungus25_crop.jpg,3,19,1.0,182.0,2,2705.5188,40.0,19.0,EAT                                    DON'T EAT,2704.5315,2696.475,2612.4106
184,1,False,left,avoid,neg,fungus40_crop.jpg,3,19,1.0,183.0,2,2707.4934,40.0,19.0,EAT                                    DON'T EAT,2706.5498,2696.475,2612.4106
185,1,True,left,approach,neg,insect38_crop.jpg,3,19,1.0,184.0,1,2709.4343,40.0,19.0,EAT                                    DON'T EAT,2708.5684,2696.475,2612.4106
186,1,False,left,avoid,neg,fungus26_crop.jpg,3,19,1.0,185.0,2,2711.4534,40.0,19.0,EAT                                    DON'T EAT,2710.5867,2696.475,2612.4106
187,1,False,left,avoid,neg,fungus28_crop.jpg,3,19,1.0,186.0,2,2714.4429,40.0,19.0,EAT                                    DON'T EAT,2712.605,2696.475,2612.4106
188,1,False,left,avoid,neg,fungus14_crop.jpg,3,19,1.0,187.0,2,2715.657,40.0,19.0,EAT                                    DON'T EAT,2714.6233,2696.475,2612.4106
189,1,True,left,approach,pos,cake19_crop.jpg,3,19,1.0,188.0,1,2718.1409,40.0,19.0,EAT                                    DON'T EAT,2716.6416,2696.475,2612.4106
190,1,False,left,avoid,neg,fungus9_crop.jpg,3,19,1.0,189.0,2,2719.5994,40.0,19.0,EAT                                    DON'T EAT,2718.6602,2696.475,2612.4106
191,0,False,right,avoid,neg,fungus27_crop.jpg,3,20,1.0,190.0,2,2738.1838,40.0,20.0,EAT                                    DON'T EAT,2737.2588,2733.2388,2612.4106
192,0,False,right,avoid,neg,fungus22_crop.jpg,3,20,1.0,191.0,2,2739.9866,40.0,20.0,EAT                                    DON'T EAT,2739.277,2733.2388,2612.4106
193,0,False,right,avoid,neg,fungus21_crop.jpg,3,20,1.0,192.0,2,2741.9866,40.0,20.0,EAT                                    DON'T EAT,2741.2957,2733.2388,2612.4106
194,0,False,right,avoid,neg,fungus25_crop.jpg,3,20,1.0,193.0,2,2744.0583,40.0,20.0,EAT                                    DON'T EAT,2743.3137,2733.2388,2612.4106
195,0,False,right,avoid,neg,fungus32_crop.jpg,3,20,1.0,194.0,2,2746.1797,40.0,20.0,EAT                                    DON'T EAT,2745.3323,2733.2388,2612.4106
196,0,True,right,approach,neg,insect38_crop.jpg,3,20,1.0,195.0,1,2748.1934,40.0,20.0,EAT                                    DON'T EAT,2747.3506,2733.2388,2612.4106
197,0,False,right,avoid,neg,fungus23_crop.jpg,3,20,1.0,196.0,2,2750.1938,40.0,20.0,EAT                                    DON'T EAT,2749.369,2733.2388,2612.4106
198,0,False,right,avoid,neg,fungus37_crop.jpg,3,20,1.0,197.0,2,2752.1638,40.0,20.0,EAT                                    DON'T EAT,2751.3872,2733.2388,2612.4106
199,0,True,right,approach,pos,cake8_crop.jpg,3,20,1.0,198.0,1,2754.317,40.0,20.0,EAT                                    DON'T EAT,2753.4055,2733.2388,2612.4106
200,0,False,right,avoid,neg,fungus29_crop.jpg,3,20,1.0,199.0,2,2756.2407,40.0,20.0,EAT                                    DON'T EAT,2755.424,2733.2388,2612.4106
201,0,True,right,avoid,pos,meat40_crop.jpg,3,21,1.0,200.0,2,2774.5723,40.0,21.0,EAT                                    DON'T EAT,2773.539,2769.5188,2612.4106
202,0,False,right,approach,neg,insect2_crop.jpg,3,21,1.0,201.0,1,2776.4521,40.0,21.0,EAT                                    DON'T EAT,2775.5574,2769.5188,2612.4106
203,0,False,right,approach,neg,insect1_crop.jpg,3,21,1.0,202.0,1,2778.276,40.0,21.0,EAT                                    DON'T EAT,2777.5757,2769.5188,2612.4106
204,0,False,right,approach,neg,insect18_crop.jpg,3,21,1.0,203.0,1,2780.2192,40.0,21.0,EAT                                    DON'T EAT,2779.594,2769.5188,2612.4106
205,0,False,right,approach,neg,insect39_crop.jpg,3,21,1.0,204.0,1,2782.2144,40.0,21.0,EAT                                    DON'T EAT,2781.6123,2769.5188,2612.4106
206,0,False,right,approach,neg,insect19_crop.jpg,3,21,1.0,205.0,1,2784.2446,40.0,21.0,EAT                                    DON'T EAT,2783.6309,2769.5188,2612.4106
207,0,False,right,approach,neg,insect34_crop.jpg,3,21,1.0,206.0,1,2786.19,40.0,21.0,EAT                                    DON'T EAT,2785.6492,2769.5188,2612.4106
208,0,True,right,avoid,neg,fungus39_crop.jpg,3,21,1.0,207.0,2,2788.624,40.0,21.0,EAT                                    DON'T EAT,2787.6675,2769.5188,2612.4106
209,0,False,right,approach,neg,insect4_crop.jpg,3,21,1.0,208.0,1,2790.3782,40.0,21.0,EAT                                    DON'T EAT,2789.6858,2769.5188,2612.4106
210,0,False,right,approach,neg,insect15_crop.jpg,3,21,1.0,209.0,1,2792.25,40.0,21.0,EAT                                    DON'T EAT,2791.704,2769.5188,2612.4106
211,0,False,right,approach,pos,cake1_crop.jpg,3,22,1.0,210.0,1,2812.4333,40.0,22.0,EAT                                    DON'T EAT,2811.4705,2807.4504,2612.4106
212,0,True,right,avoid,pos,meat8_crop.jpg,3,22,1.0,211.0,2,2814.4146,40.0,22.0,EAT                                    DON'T EAT,2813.4888,2807.4504,2612.4106
213,0,False,right,approach,pos,cake32_crop.jpg,3,22,1.0,212.0,1,2816.6646,40.0,22.0,EAT                                    DON'T EAT,2815.507,2807.4504,2612.4106
214,0,True,right,avoid,neg,fungus34_crop.jpg,3,22,1.0,213.0,2,2818.4219,40.0,22.0,EAT                                    DON'T EAT,2817.5256,2807.4504,2612.4106
215,0,False,right,approach,pos,cake3_crop.jpg,3,22,1.0,214.0,1,2820.3975,40.0,22.0,EAT                                    DON'T EAT,2819.544,2807.4504,2612.4106
216,0,False,right,approach,pos,cake17_crop.jpg,3,22,1.0,215.0,1,2822.23,40.0,22.0,EAT                                    DON'T EAT,2821.5623,2807.4504,2612.4106
217,0,False,right,approach,pos,cake19_crop.jpg,3,22,1.0,216.0,1,2824.2256,40.0,22.0,EAT                                    DON'T EAT,2823.5806,2807.4504,2612.4106
218,0,False,right,approach,pos,cake13_crop.jpg,3,22,1.0,217.0,1,2826.2996,40.0,22.0,EAT                                    DON'T EAT,2825.5989,2807.4504,2612.4106
219,0,False,right,approach,pos,cake22_crop.jpg,3,22,1.0,218.0,1,2828.3523,40.0,22.0,EAT                                    DON'T EAT,2827.6172,2807.4504,2612.4106
220,0,False,right,approach,pos,cake2_crop.jpg,3,22,1.0,219.0,1,2830.2368,40.0,22.0,EAT                                    DON'T EAT,2829.6357,2807.4504,2612.4106
221,2,False,left,approach,pos,cake1_crop.jpg,3,23,1.0,220.0,1,2848.488,40.0,23.0,EAT                                    DON'T EAT,2847.6672,2843.6472,2612.4106
222,2,False,left,approach,pos,cake21_crop.jpg,3,23,1.0,221.0,1,2850.2869,40.0,23.0,EAT                                    DON'T EAT,2849.6855,2843.6472,2612.4106
223,2,True,left,avoid,neg,fungus3_crop.jpg,3,23,1.0,222.0,2,2852.8132,40.0,23.0,EAT                                    DON'T EAT,2851.7039,2843.6472,2612.4106
224,2,False,left,approach,pos,cake11_crop.jpg,3,23,1.0,223.0,1,2854.4436,40.0,23.0,EAT                                    DON'T EAT,2853.7224,2843.6472,2612.4106
225,2,False,left,approach,pos,cake10_crop.jpg,3,23,1.0,224.0,1,2856.5303,40.0,23.0,EAT                                    DON'T EAT,2855.7407,2843.6472,2612.4106
226,2,True,left,avoid,pos,meat18_crop.jpg,3,23,1.0,225.0,2,2858.601,40.0,23.0,EAT                                    DON'T EAT,2857.759,2843.6472,2612.4106
227,2,False,left,approach,pos,cake37_crop.jpg,3,23,1.0,226.0,1,2860.6218,40.0,23.0,EAT                                    DON'T EAT,2859.7773,2843.6472,2612.4106
228,2,False,left,approach,pos,cake5_crop.jpg,3,23,1.0,227.0,1,2862.5527,40.0,23.0,EAT                                    DON'T EAT,2861.7957,2843.6472,2612.4106
229,2,False,left,approach,pos,cake12_crop.jpg,3,23,1.0,228.0,1,2864.5706,40.0,23.0,EAT                                    DON'T EAT,2863.814,2843.6472,2612.4106
230,2,False,left,approach,pos,cake15_crop.jpg,3,23,1.0,229.0,1,2866.4795,40.0,23.0,EAT                                    DON'T EAT,2865.8323,2843.6472,2612.4106
231,2,False,right,approach,neg,insect5_crop.jpg,3,24,1.0,230.0,1,2885.2124,40.0,24.0,EAT                                    DON'T EAT,2884.2979,2880.2776,2612.4106
232,2,False,right,approach,neg,insect6_crop.jpg,3,24,1.0,231.0,1,2886.9075,40.0,24.0,EAT                                    DON'T EAT,2886.3162,2880.2776,2612.4106
233,2,True,right,avoid,neg,fungus18_crop.jpg,3,24,1.0,232.0,2,2889.2437,40.0,24.0,EAT                                    DON'T EAT,2888.3342,2880.2776,2612.4106
234,2,False,right,approach,neg,insect22_crop.jpg,3,24,1.0,233.0,1,2891.0964,40.0,24.0,EAT                                    DON'T EAT,2890.3525,2880.2776,2612.4106
235,2,False,right,approach,neg,insect32_crop.jpg,3,24,1.0,234.0,1,2892.9077,40.0,24.0,EAT                                    DON'T EAT,2892.371,2880.2776,2612.4106
236,2,False,right,approach,neg,insect37_crop.jpg,3,24,1.0,235.0,1,2895.0767,40.0,24.0,EAT                                    DON'T EAT,2894.3894,2880.2776,2612.4106
237,2,True,right,avoid,pos,meat26_crop.jpg,3,24,1.0,236.0,2,2897.3455,40.0,24.0,EAT                                    DON'T EAT,2896.4077,2880.2776,2612.4106
238,2,False,right,approach,neg,insect35_crop.jpg,3,24,1.0,237.0,1,2899.305,40.0,24.0,EAT                                    DON'T EAT,2898.426,2880.2776,2612.4106
239,2,False,right,approach,neg,insect3_crop.jpg,3,24,1.0,238.0,1,2901.13,40.0,24.0,EAT                                    DON'T EAT,2900.4443,2880.2776,2612.4106
240,2,False,right,approach,neg,insect8_crop.jpg,3,24,1.0,239.0,1,2903.165,40.0,24.0,EAT                                    DON'T EAT,2902.4626,2880.2776,2612.4106
241,1,False,left,approach,neg,insect29_crop.jpg,4,25,1.0,240.0,1,3003.3682,40.0,25.0,EAT                                    DON'T EAT,3002.5464,2998.5261,2987.6487
242,1,False,left,approach,neg,insect30_crop.jpg,4,25,1.0,241.0,1,3005.2212,40.0,25.0,EAT                                    DON'T EAT,3004.5647,2998.5261,2987.6487
243,1,False,left,approach,neg,insect34_crop.jpg,4,25,1.0,242.0,1,3007.1016,40.0,25.0,EAT                                    DON'T EAT,3006.583,2998.5261,2987.6487
244,1,False,left,approach,neg,insect22_crop.jpg,4,25,1.0,243.0,1,3009.1636,40.0,25.0,EAT                                    DON'T EAT,3008.6013,2998.5261,2987.6487
245,1,True,left,avoid,neg,fungus38_crop.jpg,4,25,1.0,244.0,2,3011.5737,40.0,25.0,EAT                                    DON'T EAT,3010.6199,2998.5261,2987.6487
246,1,False,left,approach,neg,insect3_crop.jpg,4,25,1.0,245.0,1,3013.2969,40.0,25.0,EAT                                    DON'T EAT,3012.638,2998.5261,2987.6487
247,1,False,left,approach,neg,insect21_crop.jpg,4,25,1.0,246.0,1,3015.263,40.0,25.0,EAT                                    DON'T EAT,3014.6565,2998.5261,2987.6487
248,1,False,left,approach,neg,insect17_crop.jpg,4,25,1.0,247.0,1,3017.4915,40.0,25.0,EAT                                    DON'T EAT,3016.6748,2998.5261,2987.6487
249,1,True,left,avoid,pos,meat3_crop.jpg,4,25,1.0,248.0,2,3019.797,40.0,25.0,EAT                                    DON'T EAT,3018.693,2998.5261,2987.6487
250,1,False,left,approach,neg,insect6_crop.jpg,4,25,1.0,249.0,1,3021.442,40.0,25.0,EAT                                    DON'T EAT,3020.7114,2998.5261,2987.6487
251,2,False,left,avoid,pos,meat24_crop.jpg,4,26,1.0,250.0,2,3041.3901,40.0,26.0,EAT                                    DON'T EAT,3040.2444,3036.2244,2987.6487
252,2,False,left,avoid,pos,meat33_crop.jpg,4,26,1.0,251.0,2,3042.9717,40.0,26.0,EAT                                    DON'T EAT,3042.2627,3036.2244,2987.6487
253,2,False,left,avoid,pos,meat5_crop.jpg,4,26,1.0,252.0,2,3044.9792,40.0,26.0,EAT                                    DON'T EAT,3044.281,3036.2244,2987.6487
254,2,False,left,avoid,pos,meat40_crop.jpg,4,26,1.0,253.0,2,3047.0295,40.0,26.0,EAT                                    DON'T EAT,3046.2996,3036.2244,2987.6487
255,2,False,left,avoid,pos,meat32_crop.jpg,4,26,1.0,254.0,2,3048.9937,40.0,26.0,EAT                                    DON'T EAT,3048.3176,3036.2244,2987.6487
256,2,True,left,approach,pos,cake29_crop.jpg,4,26,1.0,255.0,1,3051.121,40.0,26.0,EAT                                    DON'T EAT,3050.336,3036.2244,2987.6487
257,2,False,left,avoid,pos,meat7_crop.jpg,4,26,1.0,256.0,2,3053.1807,40.0,26.0,EAT                                    DON'T EAT,3052.3542,3036.2244,2987.6487
258,2,False,left,avoid,pos,meat22_crop.jpg,4,26,1.0,257.0,2,3055.1428,40.0,26.0,EAT                                    DON'T EAT,3054.3728,3036.2244,2987.6487
259,2,True,left,approach,neg,insect10_crop.jpg,4,26,1.0,258.0,1,3057.0896,40.0,26.0,EAT                                    DON'T EAT,3056.391,3036.2244,2987.6487
260,2,False,left,avoid,pos,meat23_crop.jpg,4,26,1.0,259.0,2,3059.2156,40.0,26.0,EAT                                    DON'T EAT,3058.4094,3036.2244,2987.6487
261,1,False,left,avoid,pos,meat12_crop.jpg,4,27,1.0,260.0,2,3078.9841,40.0,27.0,EAT                                    DON'T EAT,3077.125,3073.105,2987.6487
262,1,False,left,avoid,pos,meat1_crop.jpg,4,27,1.0,261.0,2,3080.0942,40.0,27.0,EAT                                    DON'T EAT,3079.1433,3073.105,2987.6487
263,1,False,left,avoid,pos,meat8_crop.jpg,4,27,1.0,262.0,2,3081.7637,40.0,27.0,EAT                                    DON'T EAT,3081.1619,3073.105,2987.6487
264,1,False,left,avoid,pos,meat16_crop.jpg,4,27,1.0,263.0,2,3083.8906,40.0,27.0,EAT                                    DON'T EAT,3083.18,3073.105,2987.6487
265,1,False,left,avoid,pos,meat10_crop.jpg,4,27,1.0,264.0,2,3085.98,40.0,27.0,EAT                                    DON'T EAT,3085.1985,3073.105,2987.6487
266,1,False,left,avoid,pos,meat31_crop.jpg,4,27,1.0,265.0,2,3087.917,40.0,27.0,EAT                                    DON'T EAT,3087.2168,3073.105,2987.6487
267,1,False,left,avoid,pos,meat14_crop.jpg,4,27,1.0,266.0,2,3089.9792,40.0,27.0,EAT                                    DON'T EAT,3089.235,3073.105,2987.6487
268,1,True,left,approach,neg,insect15_crop.jpg,4,27,1.0,267.0,1,3092.1445,40.0,27.0,EAT                                    DON'T EAT,3091.2534,3073.105,2987.6487
269,1,False,left,avoid,pos,meat2_crop.jpg,4,27,1.0,268.0,2,3094.0972,40.0,27.0,EAT                                    DON'T EAT,3093.2717,3073.105,2987.6487
270,1,True,left,approach,pos,cake36_crop.jpg,4,27,1.0,269.0,1,3096.1702,40.0,27.0,EAT                                    DON'T EAT,3095.29,3073.105,2987.6487
271,0,False,left,avoid,pos,meat15_crop.jpg,4,28,1.0,270.0,2,3113.7507,40.0,28.0,EAT                                    DON'T EAT,3112.621,3108.6006,2987.6487
272,0,False,left,avoid,pos,meat13_crop.jpg,4,28,1.0,271.0,2,3115.4355,40.0,28.0,EAT                                    DON'T EAT,3114.6396,3108.6006,2987.6487
273,0,False,left,avoid,pos,meat20_crop.jpg,4,28,1.0,272.0,2,3117.3972,40.0,28.0,EAT                                    DON'T EAT,3116.658,3108.6006,2987.6487
274,0,False,left,avoid,pos,meat6_crop.jpg,4,28,1.0,273.0,2,3119.4607,40.0,28.0,EAT                                    DON'T EAT,3118.6763,3108.6006,2987.6487
275,0,True,left,approach,pos,cake31_crop.jpg,4,28,1.0,274.0,1,3121.6045,40.0,28.0,EAT                                    DON'T EAT,3120.6946,3108.6006,2987.6487
276,0,False,left,avoid,pos,meat17_crop.jpg,4,28,1.0,275.0,2,3123.6328,40.0,28.0,EAT                                    DON'T EAT,3122.7126,3108.6006,2987.6487
277,0,False,left,avoid,pos,meat36_crop.jpg,4,28,1.0,276.0,2,3125.6677,40.0,28.0,EAT                                    DON'T EAT,3124.7312,3108.6006,2987.6487
278,0,True,left,approach,neg,insect8_crop.jpg,4,28,1.0,277.0,1,3127.5623,40.0,28.0,EAT                                    DON'T EAT,3126.7495,3108.6006,2987.6487
279,0,False,left,avoid,pos,meat28_crop.jpg,4,28,1.0,278.0,2,3129.7102,40.0,28.0,EAT                                    DON'T EAT,3128.768,3108.6006,2987.6487
280,0,False,left,avoid,pos,meat34_crop.jpg,4,28,1.0,279.0,2,3131.8442,40.0,28.0,EAT                                    DON'T EAT,3130.7861,3108.6006,2987.6487
281,1,False,right,avoid,pos,meat19_crop.jpg,4,29,1.0,280.0,2,3149.8906,40.0,29.0,EAT                                    DON'T EAT,3148.968,3144.948,2987.6487
282,1,False,right,avoid,pos,meat23_crop.jpg,4,29,1.0,281.0,2,3151.7593,40.0,29.0,EAT                                    DON'T EAT,3150.9863,3144.948,2987.6487
283,1,False,right,avoid,pos,meat25_crop.jpg,4,29,1.0,282.0,2,3153.6616,40.0,29.0,EAT                                    DON'T EAT,3153.0046,3144.948,2987.6487
284,1,False,right,avoid,pos,meat22_crop.jpg,4,29,1.0,283.0,2,3155.703,40.0,29.0,EAT                                    DON'T EAT,3155.0232,3144.948,2987.6487
285,1,False,right,avoid,pos,meat6_crop.jpg,4,29,1.0,284.0,2,3157.6853,40.0,29.0,EAT                                    DON'T EAT,3157.0413,3144.948,2987.6487
286,1,False,right,avoid,pos,meat37_crop.jpg,4,29,1.0,285.0,2,3159.7405,40.0,29.0,EAT                                    DON'T EAT,3159.0598,3144.948,2987.6487
287,1,False,right,avoid,pos,meat5_crop.jpg,4,29,1.0,286.0,2,3161.7156,40.0,29.0,EAT                                    DON'T EAT,3161.0781,3144.948,2987.6487
288,1,True,right,approach,neg,insect33_crop.jpg,4,29,1.0,287.0,1,3163.9841,40.0,29.0,EAT                                    DON'T EAT,3163.0964,3144.948,2987.6487
289,1,False,right,avoid,pos,meat30_crop.jpg,4,29,1.0,288.0,2,3166.7207,40.0,29.0,EAT                                    DON'T EAT,3165.1143,3144.948,2987.6487
290,1,True,right,approach,pos,cake34_crop.jpg,4,29,1.0,289.0,1,3168.53,40.0,29.0,EAT                                    DON'T EAT,3167.133,3144.948,2987.6487
291,2,True,left,avoid,neg,fungus32_crop.jpg,4,30,1.0,290.0,2,3188.3003,40.0,30.0,EAT                                    DON'T EAT,3187.1665,3183.1465,2987.6487
292,2,False,left,approach,neg,insect1_crop.jpg,4,30,1.0,291.0,1,3189.9697,40.0,30.0,EAT                                    DON'T EAT,3189.1848,3183.1465,2987.6487
293,2,False,left,approach,neg,insect28_crop.jpg,4,30,1.0,292.0,1,3191.776,40.0,30.0,EAT                                    DON'T EAT,3191.2031,3183.1465,2987.6487
294,2,False,left,approach,neg,insect25_crop.jpg,4,30,1.0,293.0,1,3193.8127,40.0,30.0,EAT                                    DON'T EAT,3193.2214,3183.1465,2987.6487
295,2,False,left,approach,neg,insect16_crop.jpg,4,30,1.0,294.0,1,3195.7898,40.0,30.0,EAT                                    DON'T EAT,3195.2395,3183.1465,2987.6487
296,2,False,left,approach,neg,insect9_crop.jpg,4,30,1.0,295.0,1,3197.7444,40.0,30.0,EAT                                    DON'T EAT,3197.258,3183.1465,2987.6487
297,2,False,left,approach,neg,insect37_crop.jpg,4,30,1.0,296.0,1,3199.849,40.0,30.0,EAT                                    DON'T EAT,3199.2764,3183.1465,2987.6487
298,2,True,left,avoid,pos,meat19_crop.jpg,4,30,1.0,297.0,2,3202.1516,40.0,30.0,EAT                                    DON'T EAT,3201.295,3183.1465,2987.6487
299,2,False,left,approach,neg,insect36_crop.jpg,4,30,1.0,298.0,1,3204.1177,40.0,30.0,EAT                                    DON'T EAT,3203.3132,3183.1465,2987.6487
300,2,False,left,approach,neg,insect5_crop.jpg,4,30,1.0,299.0,1,3205.9644,40.0,30.0,EAT                                    DON'T EAT,3205.3315,3183.1465,2987.6487
301,3,True,left,avoid,pos,meat38_crop.jpg,4,31,1.0,300.0,2,3223.6377,40.0,31.0,EAT                                    DON'T EAT,3222.7793,3218.7593,2987.6487
302,3,False,left,approach,pos,cake22_crop.jpg,4,31,1.0,301.0,1,3225.5469,40.0,31.0,EAT                                    DON'T EAT,3224.7976,3218.7593,2987.6487
303,3,False,left,approach,pos,cake30_crop.jpg,4,31,1.0,302.0,1,3227.7036,40.0,31.0,EAT                                    DON'T EAT,3226.8162,3218.7593,2987.6487
304,3,False,left,approach,pos,cake9_crop.jpg,4,31,1.0,303.0,1,3229.521,40.0,31.0,EAT                                    DON'T EAT,3228.8345,3218.7593,2987.6487
305,3,False,left,approach,pos,cake28_crop.jpg,4,31,1.0,304.0,1,3231.489,40.0,31.0,EAT                                    DON'T EAT,3230.8525,3218.7593,2987.6487
306,3,False,left,approach,pos,cake13_crop.jpg,4,31,1.0,305.0,1,3233.4756,40.0,31.0,EAT                                    DON'T EAT,3232.8708,3218.7593,2987.6487
307,3,False,left,approach,pos,cake20_crop.jpg,4,31,1.0,306.0,1,3235.4631,40.0,31.0,EAT                                    DON'T EAT,3234.8894,3218.7593,2987.6487
308,3,False,left,approach,pos,cake34_crop.jpg,4,31,1.0,307.0,1,3237.8179,40.0,31.0,EAT                                    DON'T EAT,3236.9077,3218.7593,2987.6487
309,3,False,left,approach,pos,cake3_crop.jpg,4,31,1.0,308.0,1,3239.6145,40.0,31.0,EAT                                    DON'T EAT,3238.9263,3218.7593,2987.6487
310,3,True,left,avoid,neg,fungus19_crop.jpg,4,31,1.0,309.0,2,3241.7812,40.0,31.0,EAT                                    DON'T EAT,3240.9446,3218.7593,2987.6487
311,3,False,right,avoid,pos,meat27_crop.jpg,4,32,1.0,310.0,2,3260.6711,40.0,32.0,EAT                                    DON'T EAT,3259.443,3255.423,2987.6487
312,3,False,right,avoid,pos,meat12_crop.jpg,4,32,1.0,311.0,2,3262.0962,40.0,32.0,EAT                                    DON'T EAT,3261.4614,3255.423,2987.6487
313,3,False,right,avoid,pos,meat21_crop.jpg,4,32,1.0,312.0,2,3264.1577,40.0,32.0,EAT                                    DON'T EAT,3263.48,3255.423,2987.6487
314,3,False,right,avoid,pos,meat31_crop.jpg,4,32,1.0,313.0,2,3266.0894,40.0,32.0,EAT                                    DON'T EAT,3265.498,3255.423,2987.6487
315,3,True,right,approach,pos,cake30_crop.jpg,4,32,1.0,314.0,1,3268.3433,40.0,32.0,EAT                                    DON'T EAT,3267.5166,3255.423,2987.6487
316,3,False,right,avoid,pos,meat38_crop.jpg,4,32,1.0,315.0,2,3270.5208,40.0,32.0,EAT                                    DON'T EAT,3269.5347,3255.423,2987.6487
317,3,True,right,approach,neg,insect36_crop.jpg,4,32,1.0,316.0,1,3272.3123,40.0,32.0,EAT                                    DON'T EAT,3271.5532,3255.423,2987.6487
318,3,False,right,avoid,pos,meat29_crop.jpg,4,32,1.0,317.0,2,3274.416,40.0,32.0,EAT                                    DON'T EAT,3273.5715,3255.423,2987.6487
319,3,False,right,avoid,pos,meat2_crop.jpg,4,32,1.0,318.0,2,3276.237,40.0,32.0,EAT                                    DON'T EAT,3275.5898,3255.423,2987.6487
320,3,False,right,avoid,pos,meat24_crop.jpg,4,32,1.0,319.0,2,3278.241,40.0,32.0,EAT                                    DON'T EAT,3277.6082,3255.423,2987.6487
