TrialNumber,n_block,catch,hand,mot,val,stim_name,run_number,num_block,ran,order,response,RT,Subject number,n_b,left_side_resp_label,trial_onset,blk_instr_onset,baseline_onset
81,3,FALSE,left,avoid,pos,meat12_crop.jpg,1,9,1,80,1,2355.7188,35,9,DON'T EAT                                    EAT,2354.6262,2350.606,2338.801
82,3,TRUE,left,approach,pos,cake35_crop.jpg,1,9,1,81,2,2357.44,35,9,DON'T EAT                                    EAT,2356.6445,2350.606,2338.801
83,3,FALSE,left,avoid,pos,meat6_crop.jpg,1,9,1,82,1,2359.4993,35,9,DON'T EAT                                    EAT,2358.6626,2350.606,2338.801
84,3,FALSE,left,avoid,pos,meat25_crop.jpg,1,9,1,83,1,2361.5388,35,9,DON'T EAT                                    EAT,2360.6814,2350.606,2338.801
85,3,FALSE,left,avoid,pos,meat26_crop.jpg,1,9,1,84,1,2363.59,35,9,DON'T EAT                                    EAT,2362.6997,2350.606,2338.801
86,3,FALSE,left,avoid,pos,meat22_crop.jpg,1,9,1,85,1,2365.3533,35,9,DON'T EAT                                    EAT,2364.718,2350.606,2338.801
87,3,FALSE,left,avoid,pos,meat14_crop.jpg,1,9,1,86,1,2367.6882,35,9,DON'T EAT                                    EAT,2366.7363,2350.606,2338.801
88,3,TRUE,left,approach,neg,insect33_crop.jpg,1,9,1,87,2,2369.8867,35,9,DON'T EAT                                    EAT,2368.7546,2350.606,2338.801
89,3,FALSE,left,avoid,pos,meat31_crop.jpg,1,9,1,88,1,2371.6223,35,9,DON'T EAT                                    EAT,2370.773,2350.606,2338.801
90,3,FALSE,left,avoid,pos,meat4_crop.jpg,1,9,1,89,1,2373.491,35,9,DON'T EAT                                    EAT,2372.7915,2350.606,2338.801
91,1,FALSE,right,approach,pos,cake22_crop.jpg,1,10,1,90,2,2390.6592,35,10,DON'T EAT                                    EAT,2389.4387,2385.4182,2338.801
92,1,FALSE,right,approach,pos,cake12_crop.jpg,1,10,1,91,2,2392.0728,35,10,DON'T EAT                                    EAT,2391.4563,2385.4182,2338.801
93,1,FALSE,right,approach,pos,cake40_crop.jpg,1,10,1,92,2,2394.0786,35,10,DON'T EAT                                    EAT,2393.4749,2385.4182,2338.801
94,1,FALSE,right,approach,pos,cake36_crop.jpg,1,10,1,93,2,2396.0327,35,10,DON'T EAT                                    EAT,2395.4934,2385.4182,2338.801
95,1,FALSE,right,approach,pos,cake20_crop.jpg,1,10,1,94,2,2397.9592,35,10,DON'T EAT                                    EAT,2397.5117,2385.4182,2338.801
96,1,FALSE,right,approach,pos,cake34_crop.jpg,1,10,1,95,2,2400.3955,35,10,DON'T EAT                                    EAT,2399.5303,2385.4182,2338.801
97,1,FALSE,right,approach,pos,cake28_crop.jpg,1,10,1,96,2,2402.1633,35,10,DON'T EAT                                    EAT,2401.5486,2385.4182,2338.801
98,1,TRUE,right,avoid,pos,meat17_crop.jpg,1,10,1,97,1,2404.4795,35,10,DON'T EAT                                    EAT,2403.5667,2385.4182,2338.801
99,1,FALSE,right,approach,pos,cake21_crop.jpg,1,10,1,98,2,2406.4219,35,10,DON'T EAT                                    EAT,2405.5852,2385.4182,2338.801
100,1,TRUE,right,avoid,neg,fungus16_crop.jpg,1,10,1,99,1,2408.4592,35,10,DON'T EAT                                    EAT,2407.6035,2385.4182,2338.801
101,2,FALSE,right,avoid,neg,fungus7_crop.jpg,1,11,1,100,1,2427.039,35,11,DON'T EAT                                    EAT,2426.2017,2422.1824,2338.801
102,2,TRUE,right,approach,pos,cake32_crop.jpg,1,11,1,101,2,2429.3623,35,11,DON'T EAT                                    EAT,2428.2207,2422.1824,2338.801
103,2,FALSE,right,avoid,neg,fungus32_crop.jpg,1,11,1,102,1,2431.0784,35,11,DON'T EAT                                    EAT,2430.2388,2422.1824,2338.801
104,2,FALSE,right,avoid,neg,fungus6_crop.jpg,1,11,1,103,1,2433.0813,35,11,DON'T EAT                                    EAT,2432.2573,2422.1824,2338.801
105,2,FALSE,right,avoid,neg,fungus4_crop.jpg,1,11,1,104,1,2435.0781,35,11,DON'T EAT                                    EAT,2434.2756,2422.1824,2338.801
106,2,TRUE,right,approach,neg,insect7_crop.jpg,1,11,1,105,2,2437.0889,35,11,DON'T EAT                                    EAT,2436.294,2422.1824,2338.801
107,2,FALSE,right,avoid,neg,fungus22_crop.jpg,1,11,1,106,1,2439.0425,35,11,DON'T EAT                                    EAT,2438.3125,2422.1824,2338.801
108,2,FALSE,right,avoid,neg,fungus19_crop.jpg,1,11,1,107,1,2441.0212,35,11,DON'T EAT                                    EAT,2440.3308,2422.1824,2338.801
109,2,FALSE,right,avoid,neg,fungus37_crop.jpg,1,11,1,108,1,2443.0186,35,11,DON'T EAT                                    EAT,2442.3489,2422.1824,2338.801
110,2,FALSE,right,avoid,neg,fungus8_crop.jpg,1,11,1,109,1,2445.0864,35,11,DON'T EAT                                    EAT,2444.3674,2422.1824,2338.801
111,3,TRUE,left,approach,pos,cake16_crop.jpg,1,12,1,110,2,2464.0671,35,12,DON'T EAT                                    EAT,2463.1165,2459.0964,2338.801
112,3,FALSE,left,avoid,neg,fungus24_crop.jpg,1,12,1,111,1,2465.8982,35,12,DON'T EAT                                    EAT,2465.1345,2459.0964,2338.801
113,3,FALSE,left,avoid,neg,fungus33_crop.jpg,1,12,1,112,1,2467.7244,35,12,DON'T EAT                                    EAT,2467.1528,2459.0964,2338.801
114,3,FALSE,left,avoid,neg,fungus18_crop.jpg,1,12,1,113,1,2469.7334,35,12,DON'T EAT                                    EAT,2469.1714,2459.0964,2338.801
115,3,FALSE,left,avoid,neg,fungus5_crop.jpg,1,12,1,114,1,2471.8376,35,12,DON'T EAT                                    EAT,2471.1897,2459.0964,2338.801
116,3,FALSE,left,avoid,neg,fungus23_crop.jpg,1,12,1,115,1,2473.8643,35,12,DON'T EAT                                    EAT,2473.2083,2459.0964,2338.801
117,3,FALSE,left,avoid,neg,fungus10_crop.jpg,1,12,1,116,1,2475.839,35,12,DON'T EAT                                    EAT,2475.2266,2459.0964,2338.801
118,3,TRUE,left,approach,neg,insect20_crop.jpg,1,12,1,117,2,2478.2925,35,12,DON'T EAT                                    EAT,2477.2446,2459.0964,2338.801
119,3,FALSE,left,avoid,neg,fungus37_crop.jpg,1,12,1,118,1,2479.9497,35,12,DON'T EAT                                    EAT,2479.263,2459.0964,2338.801
120,3,FALSE,left,avoid,neg,fungus17_crop.jpg,1,12,1,119,1,2482.0542,35,12,DON'T EAT                                    EAT,2481.2812,2459.0964,2338.801
121,2,FALSE,left,avoid,pos,meat30_crop.jpg,1,13,1,120,1,2499.54,35,13,DON'T EAT                                    EAT,2498.4624,2494.4424,2338.801
122,2,FALSE,left,avoid,pos,meat18_crop.jpg,1,13,1,121,1,2501.114,35,13,DON'T EAT                                    EAT,2500.4807,2494.4424,2338.801
123,2,FALSE,left,avoid,pos,meat34_crop.jpg,1,13,1,122,1,2503.2737,35,13,DON'T EAT                                    EAT,2502.499,2494.4424,2338.801
124,2,FALSE,left,avoid,pos,meat38_crop.jpg,1,13,1,123,1,2505.1624,35,13,DON'T EAT                                    EAT,2504.5173,2494.4424,2338.801
125,2,TRUE,left,approach,pos,cake4_crop.jpg,1,13,1,124,2,2507.3833,35,13,DON'T EAT                                    EAT,2506.5356,2494.4424,2338.801
126,2,TRUE,left,approach,neg,insect1_crop.jpg,1,13,1,125,2,2509.3254,35,13,DON'T EAT                                    EAT,2508.5542,2494.4424,2338.801
127,2,FALSE,left,avoid,pos,meat5_crop.jpg,1,13,1,126,1,2512.0017,35,13,DON'T EAT                                    EAT,2510.5725,2494.4424,2338.801
128,2,FALSE,left,avoid,pos,meat1_crop.jpg,1,13,1,127,1,2513.425,35,13,DON'T EAT                                    EAT,2512.5908,2494.4424,2338.801
129,2,FALSE,left,avoid,pos,meat36_crop.jpg,1,13,1,128,1,2515.2764,35,13,DON'T EAT                                    EAT,2514.609,2494.4424,2338.801
130,2,FALSE,left,avoid,pos,meat32_crop.jpg,1,13,1,129,1,2517.2422,35,13,DON'T EAT                                    EAT,2516.6274,2494.4424,2338.801
131,1,TRUE,left,avoid,neg,fungus7_crop.jpg,1,14,1,130,1,2534.1548,35,14,DON'T EAT                                    EAT,2533.3079,2529.2876,2338.801
132,1,FALSE,left,approach,pos,cake38_crop.jpg,1,14,1,131,2,2536.332,35,14,DON'T EAT                                    EAT,2535.3264,2529.2876,2338.801
133,1,FALSE,left,approach,pos,cake2_crop.jpg,1,14,1,132,2,2537.947,35,14,DON'T EAT                                    EAT,2537.3445,2529.2876,2338.801
134,1,FALSE,left,approach,pos,cake36_crop.jpg,1,14,1,133,2,2539.8389,35,14,DON'T EAT                                    EAT,2539.363,2529.2876,2338.801
135,1,FALSE,left,approach,pos,cake29_crop.jpg,1,14,1,134,2,2541.963,35,14,DON'T EAT                                    EAT,2541.3813,2529.2876,2338.801
136,1,TRUE,left,avoid,pos,meat13_crop.jpg,1,14,1,135,1,2544.2234,35,14,DON'T EAT                                    EAT,2543.3997,2529.2876,2338.801
137,1,FALSE,left,approach,pos,cake18_crop.jpg,1,14,1,136,2,2546.326,35,14,DON'T EAT                                    EAT,2545.418,2529.2876,2338.801
138,1,FALSE,left,approach,pos,cake10_crop.jpg,1,14,1,137,2,2548.559,35,14,DON'T EAT                                    EAT,2547.4363,2529.2876,2338.801
139,1,FALSE,left,approach,pos,cake21_crop.jpg,1,14,1,138,2,2550.1526,35,14,DON'T EAT                                    EAT,2549.4546,2529.2876,2338.801
140,1,FALSE,left,approach,pos,cake30_crop.jpg,1,14,1,139,2,2552.108,35,14,DON'T EAT                                    EAT,2551.473,2529.2876,2338.801
141,1,TRUE,right,approach,pos,cake37_crop.jpg,1,15,1,140,2,2570.4402,35,15,DON'T EAT                                    EAT,2569.6047,2565.5842,2338.801
142,1,FALSE,right,avoid,pos,meat35_crop.jpg,1,15,1,141,1,2572.475,35,15,DON'T EAT                                    EAT,2571.623,2565.5842,2338.801
143,1,FALSE,right,avoid,pos,meat22_crop.jpg,1,15,1,142,1,2574.3726,35,15,DON'T EAT                                    EAT,2573.642,2565.5842,2338.801
144,1,FALSE,right,avoid,pos,meat1_crop.jpg,1,15,1,143,1,2576.2932,35,15,DON'T EAT                                    EAT,2575.66,2565.5842,2338.801
145,1,FALSE,right,avoid,pos,meat5_crop.jpg,1,15,1,144,1,2578.3481,35,15,DON'T EAT                                    EAT,2577.6782,2565.5842,2338.801
146,1,FALSE,right,avoid,pos,meat28_crop.jpg,1,15,1,145,1,2580.3323,35,15,DON'T EAT                                    EAT,2579.6965,2565.5842,2338.801
147,1,FALSE,right,avoid,pos,meat12_crop.jpg,1,15,1,146,1,2582.2964,35,15,DON'T EAT                                    EAT,2581.7148,2565.5842,2338.801
148,1,TRUE,right,approach,neg,insect20_crop.jpg,1,15,1,147,2,2584.5256,35,15,DON'T EAT                                    EAT,2583.7332,2565.5842,2338.801
149,1,FALSE,right,avoid,pos,meat38_crop.jpg,1,15,1,148,1,2586.586,35,15,DON'T EAT                                    EAT,2585.7515,2565.5842,2338.801
150,1,FALSE,right,avoid,pos,meat9_crop.jpg,1,15,1,149,1,2588.5322,35,15,DON'T EAT                                    EAT,2587.7698,2565.5842,2338.801
151,3,FALSE,right,approach,pos,cake33_crop.jpg,1,16,1,150,2,2607.1357,35,16,DON'T EAT                                    EAT,2606.0017,2601.9814,2338.801
152,3,TRUE,right,avoid,neg,fungus34_crop.jpg,1,16,1,151,1,2608.8774,35,16,DON'T EAT                                    EAT,2608.0198,2601.9814,2338.801
153,3,FALSE,right,approach,pos,cake30_crop.jpg,1,16,1,152,2,2610.9897,35,16,DON'T EAT                                    EAT,2610.0386,2601.9814,2338.801
154,3,FALSE,right,approach,pos,cake8_crop.jpg,1,16,1,153,2,2612.9133,35,16,DON'T EAT                                    EAT,2612.0566,2601.9814,2338.801
155,3,FALSE,right,approach,pos,cake27_crop.jpg,1,16,1,154,2,2614.8037,35,16,DON'T EAT                                    EAT,2614.075,2601.9814,2338.801
156,3,FALSE,right,approach,pos,cake38_crop.jpg,1,16,1,155,2,2616.6353,35,16,DON'T EAT                                    EAT,2616.0933,2601.9814,2338.801
157,3,FALSE,right,approach,pos,cake23_crop.jpg,1,16,1,156,2,2618.8633,35,16,DON'T EAT                                    EAT,2618.1113,2601.9814,2338.801
158,3,TRUE,right,avoid,pos,meat36_crop.jpg,1,16,1,157,1,2620.8728,35,16,DON'T EAT                                    EAT,2620.1301,2601.9814,2338.801
159,3,FALSE,right,approach,pos,cake14_crop.jpg,1,16,1,158,2,2622.9014,35,16,DON'T EAT                                    EAT,2622.1484,2601.9814,2338.801
160,3,FALSE,right,approach,pos,cake16_crop.jpg,1,16,1,159,2,2624.9817,35,16,DON'T EAT                                    EAT,2624.1667,2601.9814,2338.801
161,3,FALSE,right,approach,neg,insect21_crop.jpg,2,17,1,160,2,2736.853,35,17,DON'T EAT                                    EAT,2735.8594,2731.8389,2718.87
162,3,FALSE,right,approach,neg,insect14_crop.jpg,2,17,1,161,2,2738.6077,35,17,DON'T EAT                                    EAT,2737.8782,2731.8389,2718.87
163,3,FALSE,right,approach,neg,insect2_crop.jpg,2,17,1,162,2,2740.5093,35,17,DON'T EAT                                    EAT,2739.8962,2731.8389,2718.87
164,3,FALSE,right,approach,neg,insect19_crop.jpg,2,17,1,163,2,2742.4246,35,17,DON'T EAT                                    EAT,2741.9146,2731.8389,2718.87
165,3,TRUE,right,avoid,pos,meat8_crop.jpg,2,17,1,164,1,2744.788,35,17,DON'T EAT                                    EAT,2743.9329,2731.8389,2718.87
166,3,FALSE,right,approach,neg,insect11_crop.jpg,2,17,1,165,2,2746.743,35,17,DON'T EAT                                    EAT,2745.9512,2731.8389,2718.87
167,3,FALSE,right,approach,neg,insect13_crop.jpg,2,17,1,166,2,2748.7532,35,17,DON'T EAT                                    EAT,2747.9697,2731.8389,2718.87
168,3,TRUE,right,avoid,neg,fungus38_crop.jpg,2,17,1,167,1,2750.749,35,17,DON'T EAT                                    EAT,2749.988,2731.8389,2718.87
169,3,FALSE,right,approach,neg,insect37_crop.jpg,2,17,1,168,2,2752.9817,35,17,DON'T EAT                                    EAT,2752.0063,2731.8389,2718.87
170,3,FALSE,right,approach,neg,insect1_crop.jpg,2,17,1,169,2,2754.7725,35,17,DON'T EAT                                    EAT,2754.024,2731.8389,2718.87
171,0,FALSE,left,approach,neg,insect38_crop.jpg,2,18,1,170,2,2773.0427,35,18,DON'T EAT                                    EAT,2771.656,2767.636,2718.87
172,0,FALSE,left,approach,neg,insect28_crop.jpg,2,18,1,171,2,2774.3418,35,18,DON'T EAT                                    EAT,2773.6743,2767.636,2718.87
173,0,TRUE,left,avoid,pos,meat21_crop.jpg,2,18,1,172,1,2776.4756,35,18,DON'T EAT                                    EAT,2775.6924,2767.636,2718.87
174,0,FALSE,left,approach,neg,insect14_crop.jpg,2,18,1,173,2,2778.4333,35,18,DON'T EAT                                    EAT,2777.711,2767.636,2718.87
175,0,FALSE,left,approach,neg,insect15_crop.jpg,2,18,1,174,2,2780.3538,35,18,DON'T EAT                                    EAT,2779.729,2767.636,2718.87
176,0,FALSE,left,approach,neg,insect10_crop.jpg,2,18,1,175,2,2782.1948,35,18,DON'T EAT                                    EAT,2781.7478,2767.636,2718.87
177,0,FALSE,left,approach,neg,insect24_crop.jpg,2,18,1,176,2,2784.3474,35,18,DON'T EAT                                    EAT,2783.766,2767.636,2718.87
178,0,FALSE,left,approach,neg,insect34_crop.jpg,2,18,1,177,2,2786.2805,35,18,DON'T EAT                                    EAT,2785.7842,2767.636,2718.87
179,0,FALSE,left,approach,neg,insect32_crop.jpg,2,18,1,178,2,2788.6624,35,18,DON'T EAT                                    EAT,2787.8025,2767.636,2718.87
180,0,TRUE,left,avoid,neg,fungus26_crop.jpg,2,18,1,179,1,2790.5125,35,18,DON'T EAT                                    EAT,2789.8213,2767.636,2718.87
181,2,FALSE,left,approach,pos,cake12_crop.jpg,2,19,1,180,2,2807.8887,35,19,DON'T EAT                                    EAT,2806.9353,2802.9153,2718.87
182,2,FALSE,left,approach,pos,cake5_crop.jpg,2,19,1,181,2,2809.522,35,19,DON'T EAT                                    EAT,2808.9536,2802.9153,2718.87
183,2,FALSE,left,approach,pos,cake27_crop.jpg,2,19,1,182,2,2811.4807,35,19,DON'T EAT                                    EAT,2810.9722,2802.9153,2718.87
184,2,FALSE,left,approach,pos,cake14_crop.jpg,2,19,1,183,2,2813.458,35,19,DON'T EAT                                    EAT,2812.9902,2802.9153,2718.87
185,2,TRUE,left,avoid,pos,meat20_crop.jpg,2,19,1,184,1,2815.9092,35,19,DON'T EAT                                    EAT,2815.0085,2802.9153,2718.87
186,2,FALSE,left,approach,pos,cake26_crop.jpg,2,19,1,185,2,2817.8318,35,19,DON'T EAT                                    EAT,2817.027,2802.9153,2718.87
187,2,FALSE,left,approach,pos,cake7_crop.jpg,2,19,1,186,2,2819.754,35,19,DON'T EAT                                    EAT,2819.0454,2802.9153,2718.87
188,2,FALSE,left,approach,pos,cake22_crop.jpg,2,19,1,187,2,2821.6357,35,19,DON'T EAT                                    EAT,2821.0637,2802.9153,2718.87
189,2,FALSE,left,approach,pos,cake1_crop.jpg,2,19,1,188,2,2823.5913,35,19,DON'T EAT                                    EAT,2823.0823,2802.9153,2718.87
190,2,TRUE,left,avoid,neg,fungus12_crop.jpg,2,19,1,189,2,2825.5117,35,19,DON'T EAT                                    EAT,2825.0999,2802.9153,2718.87
191,2,TRUE,left,avoid,pos,meat23_crop.jpg,2,20,1,190,1,2843.214,35,20,DON'T EAT                                    EAT,2842.198,2838.178,2718.87
192,2,FALSE,left,approach,neg,insect31_crop.jpg,2,20,1,191,2,2845.1182,35,20,DON'T EAT                                    EAT,2844.2163,2838.178,2718.87
193,2,FALSE,left,approach,neg,insect19_crop.jpg,2,20,1,192,2,2846.7646,35,20,DON'T EAT                                    EAT,2846.2344,2838.178,2718.87
194,2,FALSE,left,approach,neg,insect26_crop.jpg,2,20,1,193,2,2848.7285,35,20,DON'T EAT                                    EAT,2848.2524,2838.178,2718.87
195,2,FALSE,left,approach,neg,insect17_crop.jpg,2,20,1,194,2,2850.842,35,20,DON'T EAT                                    EAT,2850.2712,2838.178,2718.87
196,2,TRUE,left,avoid,neg,fungus40_crop.jpg,2,20,1,195,1,2853.26,35,20,DON'T EAT                                    EAT,2852.2896,2838.178,2718.87
197,2,FALSE,left,approach,neg,insect35_crop.jpg,2,20,1,196,2,2855.173,35,20,DON'T EAT                                    EAT,2854.308,2838.178,2718.87
198,2,FALSE,left,approach,neg,insect18_crop.jpg,2,20,1,197,2,2857.0664,35,20,DON'T EAT                                    EAT,2856.3262,2838.178,2718.87
199,2,FALSE,left,approach,neg,insect3_crop.jpg,2,20,1,198,2,2858.9575,35,20,DON'T EAT                                    EAT,2858.3445,2838.178,2718.87
200,2,FALSE,left,approach,neg,insect29_crop.jpg,2,20,1,199,2,2860.8608,35,20,DON'T EAT                                    EAT,2860.363,2838.178,2718.87
201,2,FALSE,left,avoid,neg,fungus29_crop.jpg,2,21,1,200,1,2880.61,35,21,DON'T EAT                                    EAT,2879.5122,2875.4922,2718.87
202,2,FALSE,left,avoid,neg,fungus2_crop.jpg,2,21,1,201,1,2882.2183,35,21,DON'T EAT                                    EAT,2881.5308,2875.4922,2718.87
203,2,FALSE,left,avoid,neg,fungus4_crop.jpg,2,21,1,202,1,2884.1423,35,21,DON'T EAT                                    EAT,2883.5488,2875.4922,2718.87
204,2,FALSE,left,avoid,neg,fungus27_crop.jpg,2,21,1,203,1,2886.1707,35,21,DON'T EAT                                    EAT,2885.5671,2875.4922,2718.87
205,2,TRUE,left,approach,neg,insect37_crop.jpg,2,21,1,204,2,2888.5173,35,21,DON'T EAT                                    EAT,2887.5854,2875.4922,2718.87
206,2,FALSE,left,avoid,neg,fungus16_crop.jpg,2,21,1,205,1,2890.331,35,21,DON'T EAT                                    EAT,2889.6038,2875.4922,2718.87
207,2,TRUE,left,approach,pos,cake15_crop.jpg,2,21,1,206,2,2892.4663,35,21,DON'T EAT                                    EAT,2891.6223,2875.4922,2718.87
208,2,FALSE,left,avoid,neg,fungus31_crop.jpg,2,21,1,207,1,2894.4233,35,21,DON'T EAT                                    EAT,2893.6406,2875.4922,2718.87
209,2,FALSE,left,avoid,neg,fungus35_crop.jpg,2,21,1,208,1,2896.4543,35,21,DON'T EAT                                    EAT,2895.659,2875.4922,2718.87
210,2,FALSE,left,avoid,neg,fungus9_crop.jpg,2,21,1,209,1,2898.3152,35,21,DON'T EAT                                    EAT,2897.6772,2875.4922,2718.87
211,0,FALSE,right,approach,neg,insect27_crop.jpg,2,22,1,210,2,2918.8542,35,22,DON'T EAT                                    EAT,2917.427,2913.407,2718.87
212,0,FALSE,right,approach,neg,insect10_crop.jpg,2,22,1,211,2,2919.9854,35,22,DON'T EAT                                    EAT,2919.4453,2913.407,2718.87
213,0,TRUE,right,avoid,neg,fungus27_crop.jpg,2,22,1,212,1,2922.3274,35,22,DON'T EAT                                    EAT,2921.4636,2913.407,2718.87
214,0,FALSE,right,approach,neg,insect3_crop.jpg,2,22,1,213,2,2924.2454,35,22,DON'T EAT                                    EAT,2923.482,2913.407,2718.87
215,0,FALSE,right,approach,neg,insect18_crop.jpg,2,22,1,214,2,2926.1143,35,22,DON'T EAT                                    EAT,2925.5005,2913.407,2718.87
216,0,TRUE,right,avoid,pos,meat39_crop.jpg,2,22,1,215,1,2928.3147,35,22,DON'T EAT                                    EAT,2927.5188,2913.407,2718.87
217,0,FALSE,right,approach,neg,insect8_crop.jpg,2,22,1,216,2,2930.3494,35,22,DON'T EAT                                    EAT,2929.537,2913.407,2718.87
218,0,FALSE,right,approach,neg,insect22_crop.jpg,2,22,1,217,2,2932.2644,35,22,DON'T EAT                                    EAT,2931.5554,2913.407,2718.87
219,0,FALSE,right,approach,neg,insect39_crop.jpg,2,22,1,218,2,2934.0186,35,22,DON'T EAT                                    EAT,2933.5737,2913.407,2718.87
220,0,FALSE,right,approach,neg,insect24_crop.jpg,2,22,1,219,2,2936.0137,35,22,DON'T EAT                                    EAT,2935.5916,2913.407,2718.87
221,3,FALSE,right,avoid,neg,fungus12_crop.jpg,2,23,1,220,1,2954.8457,35,23,DON'T EAT                                    EAT,2954.0408,2950.0205,2718.87
222,3,FALSE,right,avoid,neg,fungus9_crop.jpg,2,23,1,221,1,2956.609,35,23,DON'T EAT                                    EAT,2956.0588,2950.0205,2718.87
223,3,FALSE,right,avoid,neg,fungus20_crop.jpg,2,23,1,222,1,2958.9553,35,23,DON'T EAT                                    EAT,2958.0771,2950.0205,2718.87
224,3,TRUE,right,approach,pos,cake13_crop.jpg,2,23,1,223,2,2960.9631,35,23,DON'T EAT                                    EAT,2960.096,2950.0205,2718.87
225,3,TRUE,right,approach,neg,insect29_crop.jpg,2,23,1,224,2,2963.1929,35,23,DON'T EAT                                    EAT,2962.114,2950.0205,2718.87
226,3,FALSE,right,avoid,neg,fungus3_crop.jpg,2,23,1,225,1,2964.8108,35,23,DON'T EAT                                    EAT,2964.1323,2950.0205,2718.87
227,3,FALSE,right,avoid,neg,fungus36_crop.jpg,2,23,1,226,1,2966.7314,35,23,DON'T EAT                                    EAT,2966.151,2950.0205,2718.87
228,3,FALSE,right,avoid,neg,fungus18_crop.jpg,2,23,1,227,1,2968.7747,35,23,DON'T EAT                                    EAT,2968.169,2950.0205,2718.87
229,3,FALSE,right,avoid,neg,fungus14_crop.jpg,2,23,1,228,1,2970.7708,35,23,DON'T EAT                                    EAT,2970.1875,2950.0205,2718.87
230,3,FALSE,right,avoid,neg,fungus11_crop.jpg,2,23,1,229,1,2972.9468,35,23,DON'T EAT                                    EAT,2972.2058,2950.0205,2718.87
231,1,TRUE,right,avoid,neg,fungus31_crop.jpg,2,24,1,230,1,2991.1829,35,24,DON'T EAT                                    EAT,2990.4211,2986.401,2718.87
232,1,TRUE,right,avoid,pos,meat21_crop.jpg,2,24,1,231,1,2993.1685,35,24,DON'T EAT                                    EAT,2992.439,2986.401,2718.87
233,1,FALSE,right,approach,neg,insect36_crop.jpg,2,24,1,232,2,2995.3594,35,24,DON'T EAT                                    EAT,2994.4578,2986.401,2718.87
234,1,FALSE,right,approach,neg,insect35_crop.jpg,2,24,1,233,2,2997.0679,35,24,DON'T EAT                                    EAT,2996.4758,2986.401,2718.87
235,1,FALSE,right,approach,neg,insect31_crop.jpg,2,24,1,234,2,2999.088,35,24,DON'T EAT                                    EAT,2998.4944,2986.401,2718.87
236,1,FALSE,right,approach,neg,insect23_crop.jpg,2,24,1,235,2,3001.191,35,24,DON'T EAT                                    EAT,3000.5127,2986.401,2718.87
237,1,FALSE,right,approach,neg,insect12_crop.jpg,2,24,1,236,2,3003.1353,35,24,DON'T EAT                                    EAT,3002.531,2986.401,2718.87
238,1,FALSE,right,approach,neg,insect15_crop.jpg,2,24,1,237,2,3005.1108,35,24,DON'T EAT                                    EAT,3004.549,2986.401,2718.87
239,1,FALSE,right,approach,neg,insect9_crop.jpg,2,24,1,238,2,3007.1282,35,24,DON'T EAT                                    EAT,3006.5676,2986.401,2718.87
240,1,FALSE,right,approach,neg,insect28_crop.jpg,2,24,1,239,2,3009.0842,35,24,DON'T EAT                                    EAT,3008.586,2986.401,2718.87
241,3,FALSE,right,avoid,pos,meat31_crop.jpg,3,25,1,240,1,3242.3145,35,25,DON'T EAT                                    EAT,3241.3625,3237.3425,3225.4893
242,3,FALSE,right,avoid,pos,meat24_crop.jpg,3,25,1,241,1,3244.1184,35,25,DON'T EAT                                    EAT,3243.381,3237.3425,3225.4893
243,3,FALSE,right,avoid,pos,meat11_crop.jpg,3,25,1,242,1,3246.0498,35,25,DON'T EAT                                    EAT,3245.3994,3237.3425,3225.4893
244,3,FALSE,right,avoid,pos,meat20_crop.jpg,3,25,1,243,1,3248.1455,35,25,DON'T EAT                                    EAT,3247.4177,3237.3425,3225.4893
245,3,FALSE,right,avoid,pos,meat32_crop.jpg,3,25,1,244,1,3250.0793,35,25,DON'T EAT                                    EAT,3249.4363,3237.3425,3225.4893
246,3,FALSE,right,avoid,pos,meat37_crop.jpg,3,25,1,245,1,3252.165,35,25,DON'T EAT                                    EAT,3251.4543,3237.3425,3225.4893
247,3,TRUE,right,approach,pos,cake24_crop.jpg,3,25,1,246,1,3253.9585,35,25,DON'T EAT                                    EAT,3253.4727,3237.3425,3225.4893
248,3,FALSE,right,avoid,pos,meat30_crop.jpg,3,25,1,247,1,3256.2627,35,25,DON'T EAT                                    EAT,3255.4912,3237.3425,3225.4893
249,3,TRUE,right,approach,neg,insect33_crop.jpg,3,25,1,248,2,3258.3018,35,25,DON'T EAT                                    EAT,3257.5095,3237.3425,3225.4893
250,3,FALSE,right,avoid,pos,meat15_crop.jpg,3,25,1,249,1,3260.374,35,25,DON'T EAT                                    EAT,3259.5278,3237.3425,3225.4893
251,2,FALSE,right,approach,pos,cake26_crop.jpg,3,26,1,250,2,3279.6194,35,26,DON'T EAT                                    EAT,3278.5598,3274.54,3225.4893
252,2,FALSE,right,approach,pos,cake35_crop.jpg,3,26,1,251,2,3281.2786,35,26,DON'T EAT                                    EAT,3280.5786,3274.54,3225.4893
253,2,FALSE,right,approach,pos,cake31_crop.jpg,3,26,1,252,2,3283.1248,35,26,DON'T EAT                                    EAT,3282.5972,3274.54,3225.4893
254,2,FALSE,right,approach,pos,cake19_crop.jpg,3,26,1,253,2,3285.2395,35,26,DON'T EAT                                    EAT,3284.6155,3274.54,3225.4893
255,2,FALSE,right,approach,pos,cake2_crop.jpg,3,26,1,254,2,3287.344,35,26,DON'T EAT                                    EAT,3286.6335,3274.54,3225.4893
256,2,FALSE,right,approach,pos,cake5_crop.jpg,3,26,1,255,2,3289.2698,35,26,DON'T EAT                                    EAT,3288.652,3274.54,3225.4893
257,2,FALSE,right,approach,pos,cake9_crop.jpg,3,26,1,256,2,3291.2207,35,26,DON'T EAT                                    EAT,3290.6704,3274.54,3225.4893
258,2,FALSE,right,approach,pos,cake3_crop.jpg,3,26,1,257,2,3293.1965,35,26,DON'T EAT                                    EAT,3292.6887,3274.54,3225.4893
259,2,TRUE,right,avoid,neg,fungus24_crop.jpg,3,26,1,258,1,3295.6287,35,26,DON'T EAT                                    EAT,3294.7073,3274.54,3225.4893
260,2,TRUE,right,avoid,pos,meat7_crop.jpg,3,26,1,259,1,3297.7856,35,26,DON'T EAT                                    EAT,3296.7253,3274.54,3225.4893
261,0,FALSE,left,approach,pos,cake24_crop.jpg,3,27,1,260,2,3317.8716,35,27,DON'T EAT                                    EAT,3316.1748,3312.1548,3225.4893
262,0,TRUE,left,avoid,pos,meat37_crop.jpg,3,27,1,261,1,3319.0962,35,27,DON'T EAT                                    EAT,3318.193,3312.1548,3225.4893
263,0,FALSE,left,approach,pos,cake11_crop.jpg,3,27,1,262,2,3320.953,35,27,DON'T EAT                                    EAT,3320.2117,3312.1548,3225.4893
264,0,FALSE,left,approach,pos,cake32_crop.jpg,3,27,1,263,2,3322.8347,35,27,DON'T EAT                                    EAT,3322.23,3312.1548,3225.4893
265,0,FALSE,left,approach,pos,cake8_crop.jpg,3,27,1,264,2,3324.863,35,27,DON'T EAT                                    EAT,3324.2483,3312.1548,3225.4893
266,0,FALSE,left,approach,pos,cake40_crop.jpg,3,27,1,265,2,3326.859,35,27,DON'T EAT                                    EAT,3326.2666,3312.1548,3225.4893
267,0,FALSE,left,approach,pos,cake3_crop.jpg,3,27,1,266,2,3328.8599,35,27,DON'T EAT                                    EAT,3328.2852,3312.1548,3225.4893
268,0,FALSE,left,approach,pos,cake28_crop.jpg,3,27,1,267,2,3330.9592,35,27,DON'T EAT                                    EAT,3330.3032,3312.1548,3225.4893
269,0,TRUE,left,avoid,neg,fungus39_crop.jpg,3,27,1,268,1,3333.4866,35,27,DON'T EAT                                    EAT,3332.3218,3312.1548,3225.4893
270,0,FALSE,left,approach,pos,cake31_crop.jpg,3,27,1,269,2,3335.156,35,27,DON'T EAT                                    EAT,3334.3398,3312.1548,3225.4893
271,0,FALSE,left,avoid,pos,meat29_crop.jpg,3,28,1,270,1,3354.2727,35,28,DON'T EAT                                    EAT,3353.2556,3349.2356,3225.4893
272,0,FALSE,left,avoid,pos,meat35_crop.jpg,3,28,1,271,1,3355.8655,35,28,DON'T EAT                                    EAT,3355.2742,3349.2356,3225.4893
273,0,FALSE,left,avoid,pos,meat27_crop.jpg,3,28,1,272,1,3358.1487,35,28,DON'T EAT                                    EAT,3357.2925,3349.2356,3225.4893
274,0,FALSE,left,avoid,pos,meat9_crop.jpg,3,28,1,273,1,3359.9497,35,28,DON'T EAT                                    EAT,3359.3103,3349.2356,3225.4893
275,0,FALSE,left,avoid,pos,meat8_crop.jpg,3,28,1,274,1,3362.0059,35,28,DON'T EAT                                    EAT,3361.3289,3349.2356,3225.4893
276,0,TRUE,left,approach,pos,cake6_crop.jpg,3,28,1,275,2,3364.0876,35,28,DON'T EAT                                    EAT,3363.3474,3349.2356,3225.4893
277,0,FALSE,left,avoid,pos,meat40_crop.jpg,3,28,1,276,1,3366.1714,35,28,DON'T EAT                                    EAT,3365.3657,3349.2356,3225.4893
278,0,FALSE,left,avoid,pos,meat10_crop.jpg,3,28,1,277,1,3368.0183,35,28,DON'T EAT                                    EAT,3367.384,3349.2356,3225.4893
279,0,TRUE,left,approach,neg,insect27_crop.jpg,3,28,1,278,2,3370.284,35,28,DON'T EAT                                    EAT,3369.4023,3349.2356,3225.4893
280,0,FALSE,left,avoid,pos,meat17_crop.jpg,3,28,1,279,1,3372.2043,35,28,DON'T EAT                                    EAT,3371.421,3349.2356,3225.4893
281,0,FALSE,right,approach,pos,cake39_crop.jpg,3,29,1,280,2,3390.6394,35,29,DON'T EAT                                    EAT,3389.7358,3385.716,3225.4893
282,0,FALSE,right,approach,pos,cake4_crop.jpg,3,29,1,281,2,3392.3896,35,29,DON'T EAT                                    EAT,3391.7544,3385.716,3225.4893
283,0,FALSE,right,approach,pos,cake10_crop.jpg,3,29,1,282,2,3394.3218,35,29,DON'T EAT                                    EAT,3393.7725,3385.716,3225.4893
284,0,FALSE,right,approach,pos,cake7_crop.jpg,3,29,1,283,2,3396.2866,35,29,DON'T EAT                                    EAT,3395.791,3385.716,3225.4893
285,0,TRUE,right,avoid,pos,meat13_crop.jpg,3,29,1,284,1,3398.6873,35,29,DON'T EAT                                    EAT,3397.8096,3385.716,3225.4893
286,0,FALSE,right,approach,pos,cake11_crop.jpg,3,29,1,285,2,3400.5452,35,29,DON'T EAT                                    EAT,3399.828,3385.716,3225.4893
287,0,FALSE,right,approach,pos,cake29_crop.jpg,3,29,1,286,2,3402.3245,35,29,DON'T EAT                                    EAT,3401.8462,3385.716,3225.4893
288,0,FALSE,right,approach,pos,cake15_crop.jpg,3,29,1,287,2,3404.4348,35,29,DON'T EAT                                    EAT,3403.8645,3385.716,3225.4893
289,0,TRUE,right,avoid,neg,fungus29_crop.jpg,3,29,1,288,1,3406.823,35,29,DON'T EAT                                    EAT,3405.8828,3385.716,3225.4893
290,0,FALSE,right,approach,pos,cake1_crop.jpg,3,29,1,289,2,3408.7168,35,29,DON'T EAT                                    EAT,3407.9011,3385.716,3225.4893
291,3,FALSE,left,approach,neg,insect8_crop.jpg,3,30,1,290,2,3425.9219,35,30,DON'T EAT                                    EAT,3424.8818,3420.8618,3225.4893
292,3,TRUE,left,avoid,neg,fungus15_crop.jpg,3,30,1,291,1,3427.674,35,30,DON'T EAT                                    EAT,3426.9,3420.8618,3225.4893
293,3,FALSE,left,approach,neg,insect6_crop.jpg,3,30,1,292,2,3429.3855,35,30,DON'T EAT                                    EAT,3428.9185,3420.8618,3225.4893
294,3,TRUE,left,avoid,pos,meat3_crop.jpg,3,30,1,293,1,3431.6748,35,30,DON'T EAT                                    EAT,3430.937,3420.8618,3225.4893
295,3,FALSE,left,approach,neg,insect2_crop.jpg,3,30,1,294,2,3433.5913,35,30,DON'T EAT                                    EAT,3432.9553,3420.8618,3225.4893
296,3,FALSE,left,approach,neg,insect30_crop.jpg,3,30,1,295,2,3435.6387,35,30,DON'T EAT                                    EAT,3434.9736,3420.8618,3225.4893
297,3,FALSE,left,approach,neg,insect12_crop.jpg,3,30,1,296,2,3437.6145,35,30,DON'T EAT                                    EAT,3436.9922,3420.8618,3225.4893
298,3,FALSE,left,approach,neg,insect11_crop.jpg,3,30,1,297,2,3439.496,35,30,DON'T EAT                                    EAT,3439.0103,3420.8618,3225.4893
299,3,FALSE,left,approach,neg,insect25_crop.jpg,3,30,1,298,2,3441.6653,35,30,DON'T EAT                                    EAT,3441.0288,3420.8618,3225.4893
300,3,FALSE,left,approach,neg,insect13_crop.jpg,3,30,1,299,2,3443.62,35,30,DON'T EAT                                    EAT,3443.047,3420.8618,3225.4893
301,3,FALSE,left,approach,pos,cake33_crop.jpg,3,31,1,300,2,3463.839,35,31,DON'T EAT                                    EAT,3462.6133,3458.593,3225.4893
302,3,TRUE,left,avoid,neg,fungus6_crop.jpg,3,31,1,301,1,3465.3638,35,31,DON'T EAT                                    EAT,3464.6316,3458.593,3225.4893
303,3,FALSE,left,approach,pos,cake20_crop.jpg,3,31,1,302,2,3467.5806,35,31,DON'T EAT                                    EAT,3466.6501,3458.593,3225.4893
304,3,TRUE,left,avoid,pos,meat24_crop.jpg,3,31,1,303,1,3469.4248,35,31,DON'T EAT                                    EAT,3468.668,3458.593,3225.4893
305,3,FALSE,left,approach,pos,cake9_crop.jpg,3,31,1,304,2,3471.4456,35,31,DON'T EAT                                    EAT,3470.6865,3458.593,3225.4893
306,3,FALSE,left,approach,pos,cake25_crop.jpg,3,31,1,305,2,3473.5393,35,31,DON'T EAT                                    EAT,3472.7048,3458.593,3225.4893
307,3,FALSE,left,approach,pos,cake13_crop.jpg,3,31,1,306,2,3475.3347,35,31,DON'T EAT                                    EAT,3474.7231,3458.593,3225.4893
308,3,FALSE,left,approach,pos,cake23_crop.jpg,3,31,1,307,2,3477.314,35,31,DON'T EAT                                    EAT,3476.7417,3458.593,3225.4893
309,3,FALSE,left,approach,pos,cake37_crop.jpg,3,31,1,308,2,3479.3418,35,31,DON'T EAT                                    EAT,3478.7593,3458.593,3225.4893
310,3,FALSE,left,approach,pos,cake34_crop.jpg,3,31,1,309,2,3481.615,35,31,DON'T EAT                                    EAT,3480.7783,3458.593,3225.4893
311,0,TRUE,right,approach,neg,insect30_crop.jpg,3,32,1,310,2,3497.6316,35,32,DON'T EAT                                    EAT,3496.8582,3492.8381,3225.4893
312,0,FALSE,right,avoid,neg,fungus17_crop.jpg,3,32,1,311,1,3499.69,35,32,DON'T EAT                                    EAT,3498.8767,3492.8381,3225.4893
313,0,FALSE,right,avoid,neg,fungus21_crop.jpg,3,32,1,312,1,3501.5532,35,32,DON'T EAT                                    EAT,3500.895,3492.8381,3225.4893
314,0,FALSE,right,avoid,neg,fungus1_crop.jpg,3,32,1,313,1,3503.535,35,32,DON'T EAT                                    EAT,3502.913,3492.8381,3225.4893
315,0,FALSE,right,avoid,neg,fungus15_crop.jpg,3,32,1,314,1,3505.4915,35,32,DON'T EAT                                    EAT,3504.9316,3492.8381,3225.4893
316,0,FALSE,right,avoid,neg,fungus5_crop.jpg,3,32,1,315,1,3507.8486,35,32,DON'T EAT                                    EAT,3506.9502,3492.8381,3225.4893
317,0,TRUE,right,approach,pos,cake6_crop.jpg,3,32,1,316,2,3509.616,35,32,DON'T EAT                                    EAT,3508.9685,3492.8381,3225.4893
318,0,FALSE,right,avoid,neg,fungus39_crop.jpg,3,32,1,317,1,3511.5977,35,32,DON'T EAT                                    EAT,3510.9868,3492.8381,3225.4893
319,0,FALSE,right,avoid,neg,fungus35_crop.jpg,3,32,1,318,1,3513.5576,35,32,DON'T EAT                                    EAT,3513.0051,3492.8381,3225.4893
320,0,FALSE,right,avoid,neg,fungus13_crop.jpg,3,32,1,319,1,3515.582,35,32,DON'T EAT                                    EAT,3515.0234,3492.8381,3225.4893
1,1,FALSE,left,avoid,pos,meat39_crop.jpg,4,1,1,0,1,103.73131,35,1,DON'T EAT                                    EAT,102.73394,98.71396,87.453156
2,1,FALSE,left,avoid,pos,meat19_crop.jpg,4,1,1,1,1,105.38572,35,1,DON'T EAT                                    EAT,104.75232,98.71396,87.453156
3,1,TRUE,left,approach,neg,insect9_crop.jpg,4,1,1,2,2,107.584755,35,1,DON'T EAT                                    EAT,106.7704,98.71396,87.453156
4,1,FALSE,left,avoid,pos,meat13_crop.jpg,4,1,1,3,1,109.539505,35,1,DON'T EAT                                    EAT,108.78899,98.71396,87.453156
5,1,FALSE,left,avoid,pos,meat21_crop.jpg,4,1,1,4,1,111.37653,35,1,DON'T EAT                                    EAT,110.806984,98.71396,87.453156
6,1,TRUE,left,approach,pos,cake11_crop.jpg,4,1,1,5,2,113.67779,35,1,DON'T EAT                                    EAT,112.832535,98.71396,87.453156
7,1,FALSE,left,avoid,pos,meat35_crop.jpg,4,1,1,6,1,115.591225,35,1,DON'T EAT                                    EAT,114.84782,98.71396,87.453156
8,1,FALSE,left,avoid,pos,meat36_crop.jpg,4,1,1,7,1,117.38086,35,1,DON'T EAT                                    EAT,116.86243,98.71396,87.453156
9,1,FALSE,left,avoid,pos,meat30_crop.jpg,4,1,1,8,1,119.58034,35,1,DON'T EAT                                    EAT,118.88097,98.71396,87.453156
10,1,FALSE,left,avoid,pos,meat11_crop.jpg,4,1,1,9,1,121.576324,35,1,DON'T EAT                                    EAT,120.89862,98.71396,87.453156
11,2,FALSE,left,avoid,neg,fungus17_crop.jpg,4,2,1,10,1,139.49854,35,2,DON'T EAT                                    EAT,138.63055,134.61049,87.453156
12,2,TRUE,left,approach,pos,cake24_crop.jpg,4,2,1,11,2,141.4236,35,2,DON'T EAT                                    EAT,140.64874,134.61049,87.453156
13,2,FALSE,left,avoid,neg,fungus37_crop.jpg,4,2,1,12,1,143.50052,35,2,DON'T EAT                                    EAT,142.66692,134.61049,87.453156
14,2,TRUE,left,approach,neg,insect27_crop.jpg,4,2,1,13,2,145.38188,35,2,DON'T EAT                                    EAT,144.68556,134.61049,87.453156
15,2,FALSE,left,avoid,neg,fungus6_crop.jpg,4,2,1,14,1,147.29832,35,2,DON'T EAT                                    EAT,146.70354,134.61049,87.453156
16,2,FALSE,left,avoid,neg,fungus8_crop.jpg,4,2,1,15,1,149.34505,35,2,DON'T EAT                                    EAT,148.72209,134.61049,87.453156
17,2,FALSE,left,avoid,neg,fungus15_crop.jpg,4,2,1,16,1,151.22034,35,2,DON'T EAT                                    EAT,150.74062,134.61049,87.453156
18,2,FALSE,left,avoid,neg,fungus29_crop.jpg,4,2,1,17,1,153.50128,35,2,DON'T EAT                                    EAT,152.75879,134.61049,87.453156
19,2,FALSE,left,avoid,neg,fungus25_crop.jpg,4,2,1,18,1,155.35983,35,2,DON'T EAT                                    EAT,154.77731,134.61049,87.453156
20,2,FALSE,left,avoid,neg,fungus5_crop.jpg,4,2,1,19,1,157.43896,35,2,DON'T EAT                                    EAT,156.79527,134.61049,87.453156
21,3,FALSE,right,avoid,neg,fungus8_crop.jpg,4,3,1,20,1,176.97664,35,3,DON'T EAT                                    EAT,176.24506,172.22475,87.453156
22,3,FALSE,right,avoid,neg,fungus31_crop.jpg,4,3,1,21,1,178.82402,35,3,DON'T EAT                                    EAT,178.26343,172.22475,87.453156
23,3,FALSE,right,avoid,neg,fungus14_crop.jpg,4,3,1,22,1,180.88867,35,3,DON'T EAT                                    EAT,180.28163,172.22475,87.453156
24,3,TRUE,right,approach,neg,insect14_crop.jpg,4,3,1,23,2,183.14467,35,3,DON'T EAT                                    EAT,182.30011,172.22475,87.453156
25,3,FALSE,right,avoid,neg,fungus24_crop.jpg,4,3,1,24,1,185.10014,35,3,DON'T EAT                                    EAT,184.31842,172.22475,87.453156
26,3,FALSE,right,avoid,neg,fungus23_crop.jpg,4,3,1,25,1,186.89845,35,3,DON'T EAT                                    EAT,186.33687,172.22475,87.453156
27,3,FALSE,right,avoid,neg,fungus38_crop.jpg,4,3,1,26,1,189.45682,35,3,DON'T EAT                                    EAT,188.3551,172.22475,87.453156
28,3,FALSE,right,avoid,neg,fungus16_crop.jpg,4,3,1,27,1,191.26633,35,3,DON'T EAT                                    EAT,190.37355,172.22475,87.453156
29,3,FALSE,right,avoid,neg,fungus25_crop.jpg,4,3,1,28,1,193.07968,35,3,DON'T EAT                                    EAT,192.3917,172.22475,87.453156
30,3,TRUE,right,approach,pos,cake37_crop.jpg,4,3,1,29,2,195.50185,35,3,DON'T EAT                                    EAT,194.4101,172.22475,87.453156
31,2,TRUE,left,avoid,pos,meat1_crop.jpg,4,4,1,30,1,213.50705,35,4,DON'T EAT                                    EAT,212.64189,208.62192,87.453156
32,2,FALSE,left,approach,neg,insect19_crop.jpg,4,4,1,31,2,215.39081,35,4,DON'T EAT                                    EAT,214.66049,208.62192,87.453156
33,2,FALSE,left,approach,neg,insect37_crop.jpg,4,4,1,32,2,217.46268,35,4,DON'T EAT                                    EAT,216.67833,208.62192,87.453156
34,2,FALSE,left,approach,neg,insect32_crop.jpg,4,4,1,33,2,219.29013,35,4,DON'T EAT                                    EAT,218.69705,208.62192,87.453156
35,2,FALSE,left,approach,neg,insect25_crop.jpg,4,4,1,34,2,221.17195,35,4,DON'T EAT                                    EAT,220.71538,208.62192,87.453156
36,2,TRUE,left,avoid,neg,fungus34_crop.jpg,4,4,1,35,1,223.45653,35,4,DON'T EAT                                    EAT,222.73318,208.62192,87.453156
37,2,FALSE,left,approach,neg,insect35_crop.jpg,4,4,1,36,2,225.43806,35,4,DON'T EAT                                    EAT,224.75194,208.62192,87.453156
38,2,FALSE,left,approach,neg,insect8_crop.jpg,4,4,1,37,2,227.6031,35,4,DON'T EAT                                    EAT,226.77037,208.62192,87.453156
39,2,FALSE,left,approach,neg,insect1_crop.jpg,4,4,1,38,2,229.5276,35,4,DON'T EAT                                    EAT,228.78873,208.62192,87.453156
40,2,FALSE,left,approach,neg,insect36_crop.jpg,4,4,1,39,2,231.63773,35,4,DON'T EAT                                    EAT,230.80708,208.62192,87.453156
41,3,FALSE,left,approach,pos,cake31_crop.jpg,4,5,1,40,2,248.75299,35,5,DON'T EAT                                    EAT,247.90459,243.88461,87.453156
42,3,FALSE,left,approach,pos,cake36_crop.jpg,4,5,1,41,2,250.44225,35,5,DON'T EAT                                    EAT,249.92296,243.88461,87.453156
43,3,FALSE,left,approach,pos,cake28_crop.jpg,4,5,1,42,2,252.4048,35,5,DON'T EAT                                    EAT,251.94101,243.88461,87.453156
44,3,TRUE,left,avoid,pos,meat24_crop.jpg,4,5,1,43,1,254.79834,35,5,DON'T EAT                                    EAT,253.95973,243.88461,87.453156
45,3,FALSE,left,approach,pos,cake4_crop.jpg,4,5,1,44,2,256.75082,35,5,DON'T EAT                                    EAT,255.9777,243.88461,87.453156
46,3,FALSE,left,approach,pos,cake3_crop.jpg,4,5,1,45,2,258.55963,35,5,DON'T EAT                                    EAT,257.99646,243.88461,87.453156
47,3,FALSE,left,approach,pos,cake33_crop.jpg,4,5,1,46,2,260.6082,35,5,DON'T EAT                                    EAT,260.01465,243.88461,87.453156
48,3,FALSE,left,approach,pos,cake16_crop.jpg,4,5,1,47,2,262.53094,35,5,DON'T EAT                                    EAT,262.03287,243.88461,87.453156
49,3,FALSE,left,approach,pos,cake29_crop.jpg,4,5,1,48,2,264.55786,35,5,DON'T EAT                                    EAT,264.05096,243.88461,87.453156
50,3,TRUE,left,avoid,neg,fungus31_crop.jpg,4,5,1,49,2,266.64386,35,5,DON'T EAT                                    EAT,266.06973,243.88461,87.453156
51,3,TRUE,right,avoid,neg,fungus15_crop.jpg,4,6,1,50,1,286.42834,35,6,DON'T EAT                                    EAT,285.25217,281.23196,87.453156
52,3,FALSE,right,approach,neg,insect3_crop.jpg,4,6,1,51,2,288.15967,35,6,DON'T EAT                                    EAT,287.27063,281.23196,87.453156
53,3,TRUE,right,avoid,pos,meat37_crop.jpg,4,6,1,52,1,290.05304,35,6,DON'T EAT                                    EAT,289.2889,281.23196,87.453156
54,3,FALSE,right,approach,neg,insect18_crop.jpg,4,6,1,53,2,292.0935,35,6,DON'T EAT                                    EAT,291.30746,281.23196,87.453156
55,3,FALSE,right,approach,neg,insect22_crop.jpg,4,6,1,54,2,293.9263,35,6,DON'T EAT                                    EAT,293.3256,281.23196,87.453156
56,3,FALSE,right,approach,neg,insect23_crop.jpg,4,6,1,55,2,295.84317,35,6,DON'T EAT                                    EAT,295.3439,281.23196,87.453156
57,3,FALSE,right,approach,neg,insect15_crop.jpg,4,6,1,56,2,297.94315,35,6,DON'T EAT                                    EAT,297.36252,281.23196,87.453156
58,3,FALSE,right,approach,neg,insect39_crop.jpg,4,6,1,57,2,300.15515,35,6,DON'T EAT                                    EAT,299.38074,281.23196,87.453156
59,3,FALSE,right,approach,neg,insect11_crop.jpg,4,6,1,58,2,302.0037,35,6,DON'T EAT                                    EAT,301.39883,281.23196,87.453156
60,3,FALSE,right,approach,neg,insect21_crop.jpg,4,6,1,59,2,303.99005,35,6,DON'T EAT                                    EAT,303.41745,281.23196,87.453156
61,1,FALSE,left,approach,pos,cake27_crop.jpg,4,7,1,60,2,321.29776,35,7,DON'T EAT                                    EAT,320.29807,316.27814,87.453156
62,1,TRUE,left,avoid,pos,meat10_crop.jpg,4,7,1,61,1,323.0368,35,7,DON'T EAT                                    EAT,322.31638,316.27814,87.453156
63,1,FALSE,left,approach,pos,cake39_crop.jpg,4,7,1,62,2,325.05634,35,7,DON'T EAT                                    EAT,324.33484,316.27814,87.453156
64,1,TRUE,left,avoid,neg,fungus20_crop.jpg,4,7,1,63,1,327.2402,35,7,DON'T EAT                                    EAT,326.3531,316.27814,87.453156
65,1,FALSE,left,approach,pos,cake34_crop.jpg,4,7,1,64,2,329.15216,35,7,DON'T EAT                                    EAT,328.3711,316.27814,87.453156
66,1,FALSE,left,approach,pos,cake9_crop.jpg,4,7,1,65,2,331.27228,35,7,DON'T EAT                                    EAT,330.38974,316.27814,87.453156
67,1,FALSE,left,approach,pos,cake19_crop.jpg,4,7,1,66,2,333.0302,35,7,DON'T EAT                                    EAT,332.4081,316.27814,87.453156
68,1,FALSE,left,approach,pos,cake7_crop.jpg,4,7,1,67,2,334.94437,35,7,DON'T EAT                                    EAT,334.42657,316.27814,87.453156
69,1,FALSE,left,approach,pos,cake1_crop.jpg,4,7,1,68,2,337.25076,35,7,DON'T EAT                                    EAT,336.44476,316.27814,87.453156
70,1,FALSE,left,approach,pos,cake40_crop.jpg,4,7,1,69,2,339.49246,35,7,DON'T EAT                                    EAT,338.4631,316.27814,87.453156
71,3,FALSE,left,avoid,pos,meat6_crop.jpg,4,8,1,70,1,358.6422,35,8,DON'T EAT                                    EAT,357.76257,353.74234,87.453156
72,3,FALSE,left,avoid,pos,meat12_crop.jpg,4,8,1,71,1,360.28983,35,8,DON'T EAT                                    EAT,359.78094,353.74234,87.453156
73,3,FALSE,left,avoid,pos,meat26_crop.jpg,4,8,1,72,1,362.2778,35,8,DON'T EAT                                    EAT,361.79892,353.74234,87.453156
74,3,TRUE,left,approach,pos,cake23_crop.jpg,4,8,1,73,2,364.64392,35,8,DON'T EAT                                    EAT,363.81757,353.74234,87.453156
75,3,FALSE,left,avoid,pos,meat29_crop.jpg,4,8,1,74,1,366.55313,35,8,DON'T EAT                                    EAT,365.83588,353.74234,87.453156
76,3,FALSE,left,avoid,pos,meat34_crop.jpg,4,8,1,75,1,368.4687,35,8,DON'T EAT                                    EAT,367.85422,353.74234,87.453156
77,3,TRUE,left,approach,neg,insect15_crop.jpg,4,8,1,76,2,370.54794,35,8,DON'T EAT                                    EAT,369.87253,353.74234,87.453156
78,3,FALSE,left,avoid,pos,meat27_crop.jpg,4,8,1,77,1,372.67493,35,8,DON'T EAT                                    EAT,371.8909,353.74234,87.453156
79,3,FALSE,left,avoid,pos,meat40_crop.jpg,4,8,1,78,1,374.50034,35,8,DON'T EAT                                    EAT,373.90924,353.74234,87.453156
80,3,FALSE,left,avoid,pos,meat38_crop.jpg,4,8,1,79,1,376.47113,35,8,DON'T EAT                                    EAT,375.92743,353.74234,87.453156
