TrialNumber,n_block,catch,hand,mot,val,stim_name,run_number,num_block,ran,order,response,RT,Subject number,n_b,left_side_resp_label,trial_onset,blk_instr_onset,baseline_onset
1,3,False,left,avoid,pos,meat28_crop.jpg,1,1,1.0,0.0,1,1666.0093,53.0,1.0,DON'T EAT                                    EAT,1664.4725,1660.4529,1649.0217
2,3,False,left,avoid,pos,meat20_crop.jpg,1,1,1.0,1.0,1,1667.3081,53.0,1.0,DON'T EAT                                    EAT,1666.4911,1660.4529,1649.0217
3,3,False,left,avoid,pos,meat27_crop.jpg,1,1,1.0,2.0,1,1669.2695,53.0,1.0,DON'T EAT                                    EAT,1668.5094,1660.4529,1649.0217
4,3,False,left,avoid,pos,meat14_crop.jpg,1,1,1.0,3.0,1,1671.7975,53.0,1.0,DON'T EAT                                    EAT,1670.5308,1660.4529,1649.0217
5,3,True,left,approach,neg,insect26_crop.jpg,1,1,1.0,4.0,2,1673.5851,53.0,1.0,DON'T EAT                                    EAT,1672.5486,1660.4529,1649.0217
6,3,False,left,avoid,pos,meat4_crop.jpg,1,1,1.0,5.0,1,1675.5901,53.0,1.0,DON'T EAT                                    EAT,1674.5643,1660.4529,1649.0217
7,3,False,left,avoid,pos,meat19_crop.jpg,1,1,1.0,6.0,1,1677.6501,53.0,1.0,DON'T EAT                                    EAT,1676.5825,1660.4529,1649.0217
8,3,False,left,avoid,pos,meat15_crop.jpg,1,1,1.0,7.0,1,1679.219,53.0,1.0,DON'T EAT                                    EAT,1678.6013,1660.4529,1649.0217
9,3,True,left,approach,pos,cake7_crop.jpg,1,1,1.0,8.0,2,1681.7245,53.0,1.0,DON'T EAT                                    EAT,1680.6194,1660.4529,1649.0217
10,3,False,left,avoid,pos,meat17_crop.jpg,1,1,1.0,9.0,1,1683.3346,53.0,1.0,DON'T EAT                                    EAT,1682.6377,1660.4529,1649.0217
11,1,False,left,approach,neg,insect34_crop.jpg,1,2,1.0,10.0,1,1702.5714,53.0,2.0,DON'T EAT                                    EAT,1701.3535,1697.3331,1649.0217
12,1,False,left,approach,neg,insect5_crop.jpg,1,2,1.0,11.0,1,1703.955,53.0,2.0,DON'T EAT                                    EAT,1703.372,1697.3331,1649.0217
13,1,False,left,approach,neg,insect15_crop.jpg,1,2,1.0,12.0,1,1706.037,53.0,2.0,DON'T EAT                                    EAT,1705.3901,1697.3331,1649.0217
14,1,False,left,approach,neg,insect33_crop.jpg,1,2,1.0,13.0,1,1707.9902,53.0,2.0,DON'T EAT                                    EAT,1707.4084,1697.3331,1649.0217
15,1,False,left,approach,neg,insect23_crop.jpg,1,2,1.0,14.0,1,1709.9347,53.0,2.0,DON'T EAT                                    EAT,1709.4269,1697.3331,1649.0217
16,1,False,left,approach,neg,insect32_crop.jpg,1,2,1.0,15.0,1,1711.9407,53.0,2.0,DON'T EAT                                    EAT,1711.445,1697.3331,1649.0217
17,1,True,left,avoid,pos,meat16_crop.jpg,1,2,1.0,16.0,2,1714.3085,53.0,2.0,DON'T EAT                                    EAT,1713.4635,1697.3331,1649.0217
18,1,False,left,approach,neg,insect10_crop.jpg,1,2,1.0,17.0,1,1716.128,53.0,2.0,DON'T EAT                                    EAT,1715.4819,1697.3331,1649.0217
19,1,True,left,avoid,neg,fungus2_crop.jpg,1,2,1.0,18.0,2,1718.5052,53.0,2.0,DON'T EAT                                    EAT,1717.5002,1697.3331,1649.0217
20,1,False,left,approach,neg,insect12_crop.jpg,1,2,1.0,19.0,1,1720.1866,53.0,2.0,DON'T EAT                                    EAT,1719.5186,1697.3331,1649.0217
21,2,False,left,avoid,neg,fungus22_crop.jpg,1,3,1.0,20.0,2,1739.294,53.0,3.0,DON'T EAT                                    EAT,1738.0507,1734.0304,1649.0217
22,2,False,left,avoid,neg,fungus21_crop.jpg,1,3,1.0,21.0,2,1740.7245,53.0,3.0,DON'T EAT                                    EAT,1740.0688,1734.0304,1649.0217
23,2,False,left,avoid,neg,fungus9_crop.jpg,1,3,1.0,22.0,2,1742.555,53.0,3.0,DON'T EAT                                    EAT,1742.0873,1734.0304,1649.0217
24,2,True,left,approach,neg,insect8_crop.jpg,1,3,1.0,23.0,1,1745.0488,53.0,3.0,DON'T EAT                                    EAT,1744.1057,1734.0304,1649.0217
25,2,False,left,avoid,neg,fungus30_crop.jpg,1,3,1.0,24.0,2,1746.9283,53.0,3.0,DON'T EAT                                    EAT,1746.124,1734.0304,1649.0217
26,2,True,left,approach,pos,cake16_crop.jpg,1,3,1.0,25.0,1,1749.127,53.0,3.0,DON'T EAT                                    EAT,1748.1423,1734.0304,1649.0217
27,2,False,left,avoid,neg,fungus32_crop.jpg,1,3,1.0,26.0,2,1751.0613,53.0,3.0,DON'T EAT                                    EAT,1750.1609,1734.0304,1649.0217
28,2,False,left,avoid,neg,fungus1_crop.jpg,1,3,1.0,27.0,2,1752.9277,53.0,3.0,DON'T EAT                                    EAT,1752.1785,1734.0304,1649.0217
29,2,False,left,avoid,neg,fungus24_crop.jpg,1,3,1.0,28.0,2,1754.9594,53.0,3.0,DON'T EAT                                    EAT,1754.1974,1734.0304,1649.0217
30,2,False,left,avoid,neg,fungus27_crop.jpg,1,3,1.0,29.0,2,1756.8716,53.0,3.0,DON'T EAT                                    EAT,1756.2155,1734.0304,1649.0217
31,1,False,left,avoid,pos,meat21_crop.jpg,1,4,1.0,30.0,2,1776.683,53.0,4.0,DON'T EAT                                    EAT,1775.5319,1771.5118,1649.0217
32,1,False,left,avoid,pos,meat38_crop.jpg,1,4,1.0,31.0,2,1778.1335,53.0,4.0,DON'T EAT                                    EAT,1777.55,1771.5118,1649.0217
33,1,True,left,approach,neg,insect20_crop.jpg,1,4,1.0,32.0,1,1780.3291,53.0,4.0,DON'T EAT                                    EAT,1779.5684,1771.5118,1649.0217
34,1,False,left,avoid,pos,meat8_crop.jpg,1,4,1.0,33.0,2,1782.3593,53.0,4.0,DON'T EAT                                    EAT,1781.5867,1771.5118,1649.0217
35,1,False,left,avoid,pos,meat2_crop.jpg,1,4,1.0,34.0,2,1784.3138,53.0,4.0,DON'T EAT                                    EAT,1783.6052,1771.5118,1649.0217
36,1,True,left,approach,pos,cake29_crop.jpg,1,4,1.0,35.0,1,1786.4504,53.0,4.0,DON'T EAT                                    EAT,1785.6235,1771.5118,1649.0217
37,1,False,left,avoid,pos,meat22_crop.jpg,1,4,1.0,36.0,2,1788.3099,53.0,4.0,DON'T EAT                                    EAT,1787.6418,1771.5118,1649.0217
38,1,False,left,avoid,pos,meat9_crop.jpg,1,4,1.0,37.0,2,1790.8501,53.0,4.0,DON'T EAT                                    EAT,1789.6602,1771.5118,1649.0217
39,1,False,left,avoid,pos,meat11_crop.jpg,1,4,1.0,38.0,2,1792.6517,53.0,4.0,DON'T EAT                                    EAT,1791.6783,1771.5118,1649.0217
40,1,False,left,avoid,pos,meat6_crop.jpg,1,4,1.0,39.0,2,1794.3096,53.0,4.0,DON'T EAT                                    EAT,1793.697,1771.5118,1649.0217
41,1,False,left,avoid,neg,fungus17_crop.jpg,1,5,1.0,40.0,2,1811.2609,53.0,5.0,DON'T EAT                                    EAT,1810.2106,1806.1906,1649.0217
42,1,False,left,avoid,neg,fungus12_crop.jpg,1,5,1.0,41.0,2,1812.8647,53.0,5.0,DON'T EAT                                    EAT,1812.2289,1806.1906,1649.0217
43,1,True,left,approach,pos,cake37_crop.jpg,1,5,1.0,42.0,1,1815.1017,53.0,5.0,DON'T EAT                                    EAT,1814.2472,1806.1906,1649.0217
44,1,False,left,avoid,neg,fungus25_crop.jpg,1,5,1.0,43.0,2,1816.9613,53.0,5.0,DON'T EAT                                    EAT,1816.2656,1806.1906,1649.0217
45,1,False,left,avoid,neg,fungus39_crop.jpg,1,5,1.0,44.0,2,1819.1112,53.0,5.0,DON'T EAT                                    EAT,1818.284,1806.1906,1649.0217
46,1,False,left,avoid,neg,fungus37_crop.jpg,1,5,1.0,45.0,2,1821.106,53.0,5.0,DON'T EAT                                    EAT,1820.3022,1806.1906,1649.0217
47,1,False,left,avoid,neg,fungus40_crop.jpg,1,5,1.0,46.0,2,1823.0023,53.0,5.0,DON'T EAT                                    EAT,1822.3206,1806.1906,1649.0217
48,1,False,left,avoid,neg,fungus3_crop.jpg,1,5,1.0,47.0,2,1825.023,53.0,5.0,DON'T EAT                                    EAT,1824.339,1806.1906,1649.0217
49,1,False,left,avoid,neg,fungus31_crop.jpg,1,5,1.0,48.0,2,1826.8972,53.0,5.0,DON'T EAT                                    EAT,1826.3573,1806.1906,1649.0217
50,1,True,left,approach,neg,insect36_crop.jpg,1,5,1.0,49.0,1,1829.3988,53.0,5.0,DON'T EAT                                    EAT,1828.3756,1806.1906,1649.0217
51,2,False,right,avoid,neg,fungus35_crop.jpg,1,6,1.0,50.0,2,1846.5673,53.0,6.0,DON'T EAT                                    EAT,1845.6901,1841.67,1649.0217
52,2,False,right,avoid,neg,fungus26_crop.jpg,1,6,1.0,51.0,2,1848.2449,53.0,6.0,DON'T EAT                                    EAT,1847.7083,1841.67,1649.0217
53,2,False,right,avoid,neg,fungus18_crop.jpg,1,6,1.0,52.0,2,1850.181,53.0,6.0,DON'T EAT                                    EAT,1849.7267,1841.67,1649.0217
54,2,True,right,approach,pos,cake11_crop.jpg,1,6,1.0,53.0,1,1852.5918,53.0,6.0,DON'T EAT                                    EAT,1851.745,1841.67,1649.0217
55,2,True,right,approach,neg,insect26_crop.jpg,1,6,1.0,54.0,1,1854.6311,53.0,6.0,DON'T EAT                                    EAT,1853.7635,1841.67,1649.0217
56,2,False,right,avoid,neg,fungus40_crop.jpg,1,6,1.0,55.0,2,1856.5013,53.0,6.0,DON'T EAT                                    EAT,1855.7817,1841.67,1649.0217
57,2,False,right,avoid,neg,fungus6_crop.jpg,1,6,1.0,56.0,2,1858.4275,53.0,6.0,DON'T EAT                                    EAT,1857.8,1841.67,1649.0217
58,2,False,right,avoid,neg,fungus33_crop.jpg,1,6,1.0,57.0,2,1860.5597,53.0,6.0,DON'T EAT                                    EAT,1859.8184,1841.67,1649.0217
59,2,False,right,avoid,neg,fungus5_crop.jpg,1,6,1.0,58.0,2,1862.6196,53.0,6.0,DON'T EAT                                    EAT,1861.8369,1841.67,1649.0217
60,2,False,right,avoid,neg,fungus37_crop.jpg,1,6,1.0,59.0,2,1864.4451,53.0,6.0,DON'T EAT                                    EAT,1863.8549,1841.67,1649.0217
61,0,False,right,avoid,neg,fungus20_crop.jpg,1,7,1.0,60.0,2,1880.9786,53.0,7.0,DON'T EAT                                    EAT,1880.0518,1876.032,1649.0217
62,0,False,right,avoid,neg,fungus11_crop.jpg,1,7,1.0,61.0,2,1882.748,53.0,7.0,DON'T EAT                                    EAT,1882.0703,1876.032,1649.0217
63,0,False,right,avoid,neg,fungus3_crop.jpg,1,7,1.0,62.0,2,1884.7574,53.0,7.0,DON'T EAT                                    EAT,1884.0886,1876.032,1649.0217
64,0,False,right,avoid,neg,fungus2_crop.jpg,1,7,1.0,63.0,2,1886.7302,53.0,7.0,DON'T EAT                                    EAT,1886.107,1876.032,1649.0217
65,0,False,right,avoid,neg,fungus29_crop.jpg,1,7,1.0,64.0,2,1888.7172,53.0,7.0,DON'T EAT                                    EAT,1888.1252,1876.032,1649.0217
66,0,True,right,approach,pos,cake12_crop.jpg,1,7,1.0,65.0,1,1891.0615,53.0,7.0,DON'T EAT                                    EAT,1890.1438,1876.032,1649.0217
67,0,False,right,avoid,neg,fungus10_crop.jpg,1,7,1.0,66.0,2,1892.8575,53.0,7.0,DON'T EAT                                    EAT,1892.1619,1876.032,1649.0217
68,0,False,right,avoid,neg,fungus39_crop.jpg,1,7,1.0,67.0,2,1894.8779,53.0,7.0,DON'T EAT                                    EAT,1894.1803,1876.032,1649.0217
69,0,False,right,avoid,neg,fungus15_crop.jpg,1,7,1.0,68.0,2,1896.8754,53.0,7.0,DON'T EAT                                    EAT,1896.1986,1876.032,1649.0217
70,0,True,right,approach,neg,insect10_crop.jpg,1,7,1.0,69.0,1,1898.9172,53.0,7.0,DON'T EAT                                    EAT,1898.2169,1876.032,1649.0217
71,1,False,right,avoid,pos,meat17_crop.jpg,1,8,1.0,70.0,2,1918.9353,53.0,8.0,DON'T EAT                                    EAT,1917.8335,1913.8132,1649.0217
72,1,False,right,avoid,pos,meat23_crop.jpg,1,8,1.0,71.0,2,1920.4475,53.0,8.0,DON'T EAT                                    EAT,1919.8514,1913.8132,1649.0217
73,1,False,right,avoid,pos,meat8_crop.jpg,1,8,1.0,72.0,2,1922.3977,53.0,8.0,DON'T EAT                                    EAT,1921.87,1913.8132,1649.0217
74,1,False,right,avoid,pos,meat1_crop.jpg,1,8,1.0,73.0,2,1924.4918,53.0,8.0,DON'T EAT                                    EAT,1923.8883,1913.8132,1649.0217
75,1,False,right,avoid,pos,meat40_crop.jpg,1,8,1.0,74.0,2,1926.6893,53.0,8.0,DON'T EAT                                    EAT,1925.9066,1913.8132,1649.0217
76,1,False,right,avoid,pos,meat3_crop.jpg,1,8,1.0,75.0,2,1928.5378,53.0,8.0,DON'T EAT                                    EAT,1927.925,1913.8132,1649.0217
77,1,True,right,approach,neg,insect25_crop.jpg,1,8,1.0,76.0,1,1930.7134,53.0,8.0,DON'T EAT                                    EAT,1929.9435,1913.8132,1649.0217
78,1,True,right,approach,pos,cake35_crop.jpg,1,8,1.0,77.0,1,1933.3761,53.0,8.0,DON'T EAT                                    EAT,1931.9618,1913.8132,1649.0217
79,1,False,right,avoid,pos,meat31_crop.jpg,1,8,1.0,78.0,2,1934.9231,53.0,8.0,DON'T EAT                                    EAT,1933.9801,1913.8132,1649.0217
80,1,False,right,avoid,pos,meat32_crop.jpg,1,8,1.0,79.0,2,1936.5573,53.0,8.0,DON'T EAT                                    EAT,1935.9983,1913.8132,1649.0217
81,1,False,right,avoid,neg,fungus4_crop.jpg,2,9,1.0,80.0,1,2124.5068,53.0,9.0,DON'T EAT                                    EAT,2122.9702,2118.95,2107.128
82,1,False,right,avoid,neg,fungus22_crop.jpg,2,9,1.0,81.0,1,2125.794,53.0,9.0,DON'T EAT                                    EAT,2124.9885,2118.95,2107.128
83,1,False,right,avoid,neg,fungus14_crop.jpg,2,9,1.0,82.0,1,2127.5244,53.0,9.0,DON'T EAT                                    EAT,2127.0066,2118.95,2107.128
84,1,False,right,avoid,neg,fungus13_crop.jpg,2,9,1.0,83.0,1,2129.4475,53.0,9.0,DON'T EAT                                    EAT,2129.0254,2118.95,2107.128
85,1,False,right,avoid,neg,fungus7_crop.jpg,2,9,1.0,84.0,1,2131.4812,53.0,9.0,DON'T EAT                                    EAT,2131.044,2118.95,2107.128
86,1,False,right,avoid,neg,fungus30_crop.jpg,2,9,1.0,85.0,1,2133.4978,53.0,9.0,DON'T EAT                                    EAT,2133.062,2118.95,2107.128
87,1,False,right,avoid,neg,fungus25_crop.jpg,2,9,1.0,86.0,1,2135.5566,53.0,9.0,DON'T EAT                                    EAT,2135.0803,2118.95,2107.128
88,1,True,right,approach,pos,cake26_crop.jpg,2,9,1.0,87.0,2,2137.8904,53.0,9.0,DON'T EAT                                    EAT,2137.0986,2118.95,2107.128
89,1,False,right,avoid,neg,fungus24_crop.jpg,2,9,1.0,88.0,1,2139.8052,53.0,9.0,DON'T EAT                                    EAT,2139.117,2118.95,2107.128
90,1,True,right,approach,neg,insect13_crop.jpg,2,9,1.0,89.0,2,2141.8408,53.0,9.0,DON'T EAT                                    EAT,2141.1355,2118.95,2107.128
91,2,False,left,approach,pos,cake18_crop.jpg,2,10,1.0,90.0,2,2159.1606,53.0,10.0,DON'T EAT                                    EAT,2158.1328,2154.113,2107.128
92,2,False,left,approach,pos,cake26_crop.jpg,2,10,1.0,91.0,2,2160.7761,53.0,10.0,DON'T EAT                                    EAT,2160.1514,2154.113,2107.128
93,2,False,left,approach,pos,cake36_crop.jpg,2,10,1.0,92.0,2,2162.6794,53.0,10.0,DON'T EAT                                    EAT,2162.1704,2154.113,2107.128
94,2,False,left,approach,pos,cake14_crop.jpg,2,10,1.0,93.0,2,2164.748,53.0,10.0,DON'T EAT                                    EAT,2164.1877,2154.113,2107.128
95,2,False,left,approach,pos,cake28_crop.jpg,2,10,1.0,94.0,2,2166.7686,53.0,10.0,DON'T EAT                                    EAT,2166.2063,2154.113,2107.128
96,2,True,left,avoid,pos,meat31_crop.jpg,2,10,1.0,95.0,1,2169.269,53.0,10.0,DON'T EAT                                    EAT,2168.2244,2154.113,2107.128
97,2,False,left,approach,pos,cake12_crop.jpg,2,10,1.0,96.0,2,2170.8997,53.0,10.0,DON'T EAT                                    EAT,2170.243,2154.113,2107.128
98,2,False,left,approach,pos,cake9_crop.jpg,2,10,1.0,97.0,2,2174.2102,53.0,10.0,DON'T EAT                                    EAT,2172.2612,2154.113,2107.128
99,2,False,left,approach,pos,cake8_crop.jpg,2,10,1.0,98.0,2,2175.1802,53.0,10.0,DON'T EAT                                    EAT,2174.2795,2154.113,2107.128
100,2,True,left,avoid,neg,fungus11_crop.jpg,2,10,1.0,99.0,1,2177.408,53.0,10.0,DON'T EAT                                    EAT,2176.2979,2154.113,2107.128
101,0,False,left,approach,pos,cake4_crop.jpg,2,11,1.0,100.0,2,2195.23,53.0,11.0,DON'T EAT                                    EAT,2193.9292,2189.9094,2107.128
102,0,False,left,approach,pos,cake32_crop.jpg,2,11,1.0,101.0,2,2196.5398,53.0,11.0,DON'T EAT                                    EAT,2195.9478,2189.9094,2107.128
103,0,False,left,approach,pos,cake30_crop.jpg,2,11,1.0,102.0,2,2198.6196,53.0,11.0,DON'T EAT                                    EAT,2197.966,2189.9094,2107.128
104,0,False,left,approach,pos,cake38_crop.jpg,2,11,1.0,103.0,2,2200.5444,53.0,11.0,DON'T EAT                                    EAT,2199.9844,2189.9094,2107.128
105,0,False,left,approach,pos,cake1_crop.jpg,2,11,1.0,104.0,2,2202.574,53.0,11.0,DON'T EAT                                    EAT,2202.0027,2189.9094,2107.128
106,0,True,left,avoid,neg,fungus15_crop.jpg,2,11,1.0,105.0,1,2204.7534,53.0,11.0,DON'T EAT                                    EAT,2204.021,2189.9094,2107.128
107,0,False,left,approach,pos,cake34_crop.jpg,2,11,1.0,106.0,2,2206.987,53.0,11.0,DON'T EAT                                    EAT,2206.0388,2189.9094,2107.128
108,0,False,left,approach,pos,cake23_crop.jpg,2,11,1.0,107.0,2,2208.7332,53.0,11.0,DON'T EAT                                    EAT,2208.0576,2189.9094,2107.128
109,0,False,left,approach,pos,cake13_crop.jpg,2,11,1.0,108.0,2,2210.6997,53.0,11.0,DON'T EAT                                    EAT,2210.0762,2189.9094,2107.128
110,0,True,left,avoid,pos,meat1_crop.jpg,2,11,1.0,109.0,1,2213.3616,53.0,11.0,DON'T EAT                                    EAT,2212.0942,2189.9094,2107.128
111,3,True,left,avoid,pos,meat40_crop.jpg,2,12,1.0,110.0,1,2229.5625,53.0,12.0,DON'T EAT                                    EAT,2228.4407,2224.4375,2107.128
112,3,False,left,approach,neg,insect7_crop.jpg,2,12,1.0,111.0,2,2231.3928,53.0,12.0,DON'T EAT                                    EAT,2230.4597,2224.4375,2107.128
113,3,False,left,approach,neg,insect16_crop.jpg,2,12,1.0,112.0,2,2233.2373,53.0,12.0,DON'T EAT                                    EAT,2232.4778,2224.4375,2107.128
114,3,False,left,approach,neg,insect21_crop.jpg,2,12,1.0,113.0,2,2235.0012,53.0,12.0,DON'T EAT                                    EAT,2234.4963,2224.4375,2107.128
115,3,False,left,approach,neg,insect37_crop.jpg,2,12,1.0,114.0,2,2237.129,53.0,12.0,DON'T EAT                                    EAT,2236.5151,2224.4375,2107.128
116,3,False,left,approach,neg,insect39_crop.jpg,2,12,1.0,115.0,2,2239.2314,53.0,12.0,DON'T EAT                                    EAT,2238.533,2224.4375,2107.128
117,3,False,left,approach,neg,insect28_crop.jpg,2,12,1.0,116.0,2,2241.1235,53.0,12.0,DON'T EAT                                    EAT,2240.551,2224.4375,2107.128
118,3,False,left,approach,neg,insect3_crop.jpg,2,12,1.0,117.0,2,2243.1965,53.0,12.0,DON'T EAT                                    EAT,2242.5696,2224.4375,2107.128
119,3,True,left,avoid,neg,fungus26_crop.jpg,2,12,1.0,118.0,1,2245.3704,53.0,12.0,DON'T EAT                                    EAT,2244.5876,2224.4375,2107.128
120,3,False,left,approach,neg,insect4_crop.jpg,2,12,1.0,119.0,2,2247.389,53.0,12.0,DON'T EAT                                    EAT,2246.6064,2224.4375,2107.128
121,2,False,left,approach,neg,insect40_crop.jpg,2,13,1.0,120.0,2,2263.7207,53.0,13.0,DON'T EAT                                    EAT,2262.8865,2258.8662,2107.128
122,2,False,left,approach,neg,insect14_crop.jpg,2,13,1.0,121.0,2,2265.4646,53.0,13.0,DON'T EAT                                    EAT,2264.905,2258.8662,2107.128
123,2,False,left,approach,neg,insect1_crop.jpg,2,13,1.0,122.0,2,2267.3896,53.0,13.0,DON'T EAT                                    EAT,2266.9233,2258.8662,2107.128
124,2,False,left,approach,neg,insect30_crop.jpg,2,13,1.0,123.0,2,2269.3923,53.0,13.0,DON'T EAT                                    EAT,2268.9417,2258.8662,2107.128
125,2,False,left,approach,neg,insect27_crop.jpg,2,13,1.0,124.0,2,2271.5005,53.0,13.0,DON'T EAT                                    EAT,2270.96,2258.8662,2107.128
126,2,False,left,approach,neg,insect9_crop.jpg,2,13,1.0,125.0,2,2273.5488,53.0,13.0,DON'T EAT                                    EAT,2272.978,2258.8662,2107.128
127,2,False,left,approach,neg,insect17_crop.jpg,2,13,1.0,126.0,2,2275.5266,53.0,13.0,DON'T EAT                                    EAT,2274.9966,2258.8662,2107.128
128,2,True,left,avoid,neg,fungus16_crop.jpg,2,13,1.0,127.0,1,2277.6816,53.0,13.0,DON'T EAT                                    EAT,2277.015,2258.8662,2107.128
129,2,False,left,approach,neg,insect11_crop.jpg,2,13,1.0,128.0,2,2279.5325,53.0,13.0,DON'T EAT                                    EAT,2279.0334,2258.8662,2107.128
130,2,True,left,avoid,pos,meat32_crop.jpg,2,13,1.0,129.0,1,2281.9138,53.0,13.0,DON'T EAT                                    EAT,2281.0513,2258.8662,2107.128
131,3,False,right,avoid,pos,meat19_crop.jpg,2,14,1.0,130.0,1,2300.0852,53.0,14.0,DON'T EAT                                    EAT,2298.9,2294.88,2107.128
132,3,False,right,avoid,pos,meat6_crop.jpg,2,14,1.0,131.0,1,2301.8582,53.0,14.0,DON'T EAT                                    EAT,2300.918,2294.88,2107.128
133,3,False,right,avoid,pos,meat20_crop.jpg,2,14,1.0,132.0,1,2303.4546,53.0,14.0,DON'T EAT                                    EAT,2302.9365,2294.88,2107.128
134,3,True,right,approach,pos,cake22_crop.jpg,2,14,1.0,133.0,2,2305.6614,53.0,14.0,DON'T EAT                                    EAT,2304.9548,2294.88,2107.128
135,3,False,right,avoid,pos,meat16_crop.jpg,2,14,1.0,134.0,1,2307.7434,53.0,14.0,DON'T EAT                                    EAT,2306.9731,2294.88,2107.128
136,3,False,right,avoid,pos,meat11_crop.jpg,2,14,1.0,135.0,1,2309.7437,53.0,14.0,DON'T EAT                                    EAT,2308.9917,2294.88,2107.128
137,3,False,right,avoid,pos,meat25_crop.jpg,2,14,1.0,136.0,1,2311.8533,53.0,14.0,DON'T EAT                                    EAT,2311.0098,2294.88,2107.128
138,3,True,right,approach,neg,insect3_crop.jpg,2,14,1.0,137.0,2,2313.7776,53.0,14.0,DON'T EAT                                    EAT,2313.0283,2294.88,2107.128
139,3,False,right,avoid,pos,meat10_crop.jpg,2,14,1.0,138.0,1,2315.7114,53.0,14.0,DON'T EAT                                    EAT,2315.0464,2294.88,2107.128
140,3,False,right,avoid,pos,meat2_crop.jpg,2,14,1.0,139.0,1,2317.952,53.0,14.0,DON'T EAT                                    EAT,2317.065,2294.88,2107.128
141,0,False,right,approach,neg,insect7_crop.jpg,2,15,1.0,140.0,2,2334.659,53.0,15.0,DON'T EAT                                    EAT,2333.9624,2329.9424,2107.128
142,0,False,right,approach,neg,insect15_crop.jpg,2,15,1.0,141.0,2,2336.4797,53.0,15.0,DON'T EAT                                    EAT,2335.9802,2329.9424,2107.128
143,0,False,right,approach,neg,insect17_crop.jpg,2,15,1.0,142.0,2,2338.5164,53.0,15.0,DON'T EAT                                    EAT,2337.999,2329.9424,2107.128
144,0,False,right,approach,neg,insect23_crop.jpg,2,15,1.0,143.0,2,2340.4194,53.0,15.0,DON'T EAT                                    EAT,2340.0176,2329.9424,2107.128
145,0,True,right,avoid,neg,fungus1_crop.jpg,2,15,1.0,144.0,1,2342.6501,53.0,15.0,DON'T EAT                                    EAT,2342.0356,2329.9424,2107.128
146,0,True,right,avoid,pos,meat26_crop.jpg,2,15,1.0,145.0,1,2345.476,53.0,15.0,DON'T EAT                                    EAT,2344.0542,2329.9424,2107.128
147,0,False,right,approach,neg,insect21_crop.jpg,2,15,1.0,146.0,2,2346.8018,53.0,15.0,DON'T EAT                                    EAT,2346.0725,2329.9424,2107.128
148,0,False,right,approach,neg,insect30_crop.jpg,2,15,1.0,147.0,2,2348.6848,53.0,15.0,DON'T EAT                                    EAT,2348.0906,2329.9424,2107.128
149,0,False,right,approach,neg,insect16_crop.jpg,2,15,1.0,148.0,2,2350.6895,53.0,15.0,DON'T EAT                                    EAT,2350.109,2329.9424,2107.128
150,0,False,right,approach,neg,insect22_crop.jpg,2,15,1.0,149.0,2,2352.7832,53.0,15.0,DON'T EAT                                    EAT,2352.1272,2329.9424,2107.128
151,3,False,right,approach,pos,cake33_crop.jpg,2,16,1.0,150.0,2,2369.895,53.0,16.0,DON'T EAT                                    EAT,2368.8247,2364.8042,2107.128
152,3,False,right,approach,pos,cake39_crop.jpg,2,16,1.0,151.0,2,2371.4553,53.0,16.0,DON'T EAT                                    EAT,2370.843,2364.8042,2107.128
153,3,False,right,approach,pos,cake23_crop.jpg,2,16,1.0,152.0,2,2373.4866,53.0,16.0,DON'T EAT                                    EAT,2372.8613,2364.8042,2107.128
154,3,False,right,approach,pos,cake5_crop.jpg,2,16,1.0,153.0,2,2375.418,53.0,16.0,DON'T EAT                                    EAT,2374.8796,2364.8042,2107.128
155,3,False,right,approach,pos,cake21_crop.jpg,2,16,1.0,154.0,2,2377.4783,53.0,16.0,DON'T EAT                                    EAT,2376.8977,2364.8042,2107.128
156,3,False,right,approach,pos,cake7_crop.jpg,2,16,1.0,155.0,2,2379.444,53.0,16.0,DON'T EAT                                    EAT,2378.9163,2364.8042,2107.128
157,3,False,right,approach,pos,cake17_crop.jpg,2,16,1.0,156.0,2,2381.464,53.0,16.0,DON'T EAT                                    EAT,2380.9343,2364.8042,2107.128
158,3,True,right,avoid,neg,fungus31_crop.jpg,2,16,1.0,157.0,1,2383.8118,53.0,16.0,DON'T EAT                                    EAT,2382.953,2364.8042,2107.128
159,3,True,right,avoid,pos,meat33_crop.jpg,2,16,1.0,158.0,2,2385.7324,53.0,16.0,DON'T EAT                                    EAT,2384.9712,2364.8042,2107.128
160,3,False,right,approach,pos,cake27_crop.jpg,2,16,1.0,159.0,2,2388.473,53.0,16.0,DON'T EAT                                    EAT,2386.9897,2364.8042,2107.128
161,3,True,left,approach,neg,insect29_crop.jpg,3,17,1.0,160.0,2,2496.0645,53.0,17.0,DON'T EAT                                    EAT,2494.9126,2490.8926,2478.726
162,3,False,left,avoid,neg,fungus33_crop.jpg,3,17,1.0,161.0,1,2497.7231,53.0,17.0,DON'T EAT                                    EAT,2496.931,2490.8926,2478.726
163,3,False,left,avoid,neg,fungus18_crop.jpg,3,17,1.0,162.0,1,2499.871,53.0,17.0,DON'T EAT                                    EAT,2498.9492,2490.8926,2478.726
164,3,True,left,approach,pos,cake24_crop.jpg,3,17,1.0,163.0,2,2502.34,53.0,17.0,DON'T EAT                                    EAT,2500.9675,2490.8926,2478.726
165,3,False,left,avoid,neg,fungus36_crop.jpg,3,17,1.0,164.0,1,2503.7888,53.0,17.0,DON'T EAT                                    EAT,2502.9858,2490.8926,2478.726
166,3,False,left,avoid,neg,fungus6_crop.jpg,3,17,1.0,165.0,1,2505.758,53.0,17.0,DON'T EAT                                    EAT,2505.0042,2490.8926,2478.726
167,3,False,left,avoid,neg,fungus23_crop.jpg,3,17,1.0,166.0,1,2507.7336,53.0,17.0,DON'T EAT                                    EAT,2507.0227,2490.8926,2478.726
168,3,False,left,avoid,neg,fungus34_crop.jpg,3,17,1.0,167.0,1,2509.668,53.0,17.0,DON'T EAT                                    EAT,2509.041,2490.8926,2478.726
169,3,False,left,avoid,neg,fungus4_crop.jpg,3,17,1.0,168.0,1,2511.935,53.0,17.0,DON'T EAT                                    EAT,2511.0593,2490.8926,2478.726
170,3,False,left,avoid,neg,fungus7_crop.jpg,3,17,1.0,169.0,1,2513.7012,53.0,17.0,DON'T EAT                                    EAT,2513.0776,2490.8926,2478.726
171,0,False,right,avoid,pos,meat21_crop.jpg,3,18,1.0,170.0,1,2532.9324,53.0,18.0,DON'T EAT                                    EAT,2531.5598,2527.5393,2478.726
172,0,False,right,avoid,pos,meat4_crop.jpg,3,18,1.0,171.0,1,2534.4778,53.0,18.0,DON'T EAT                                    EAT,2533.578,2527.5393,2478.726
173,0,False,right,avoid,pos,meat24_crop.jpg,3,18,1.0,172.0,1,2536.1455,53.0,18.0,DON'T EAT                                    EAT,2535.5964,2527.5393,2478.726
174,0,False,right,avoid,pos,meat34_crop.jpg,3,18,1.0,173.0,1,2538.365,53.0,18.0,DON'T EAT                                    EAT,2537.6145,2527.5393,2478.726
175,0,True,right,approach,pos,cake14_crop.jpg,3,18,1.0,174.0,2,2540.515,53.0,18.0,DON'T EAT                                    EAT,2539.633,2527.5393,2478.726
176,0,False,right,avoid,pos,meat29_crop.jpg,3,18,1.0,175.0,1,2542.3242,53.0,18.0,DON'T EAT                                    EAT,2541.6514,2527.5393,2478.726
177,0,False,right,avoid,pos,meat38_crop.jpg,3,18,1.0,176.0,1,2544.3027,53.0,18.0,DON'T EAT                                    EAT,2543.6697,2527.5393,2478.726
178,0,True,right,approach,neg,insect20_crop.jpg,3,18,1.0,177.0,2,2546.4678,53.0,18.0,DON'T EAT                                    EAT,2545.688,2527.5393,2478.726
179,0,False,right,avoid,pos,meat12_crop.jpg,3,18,1.0,178.0,1,2548.3604,53.0,18.0,DON'T EAT                                    EAT,2547.7065,2527.5393,2478.726
180,0,False,right,avoid,pos,meat7_crop.jpg,3,18,1.0,179.0,1,2550.3047,53.0,18.0,DON'T EAT                                    EAT,2549.7249,2527.5393,2478.726
181,0,False,right,approach,pos,cake19_crop.jpg,3,19,1.0,180.0,2,2569.7205,53.0,19.0,DON'T EAT                                    EAT,2568.9067,2564.8875,2478.726
182,0,False,right,approach,pos,cake2_crop.jpg,3,19,1.0,181.0,2,2571.5066,53.0,19.0,DON'T EAT                                    EAT,2570.9255,2564.8875,2478.726
183,0,False,right,approach,pos,cake38_crop.jpg,3,19,1.0,182.0,2,2573.3909,53.0,19.0,DON'T EAT                                    EAT,2572.944,2564.8875,2478.726
184,0,False,right,approach,pos,cake9_crop.jpg,3,19,1.0,183.0,2,2575.427,53.0,19.0,DON'T EAT                                    EAT,2574.9624,2564.8875,2478.726
185,0,True,right,avoid,neg,fungus8_crop.jpg,3,19,1.0,184.0,1,2577.7046,53.0,19.0,DON'T EAT                                    EAT,2576.9807,2564.8875,2478.726
186,0,False,right,approach,pos,cake13_crop.jpg,3,19,1.0,185.0,2,2580.219,53.0,19.0,DON'T EAT                                    EAT,2578.9985,2564.8875,2478.726
187,0,False,right,approach,pos,cake8_crop.jpg,3,19,1.0,186.0,2,2581.7678,53.0,19.0,DON'T EAT                                    EAT,2581.0176,2564.8875,2478.726
188,0,False,right,approach,pos,cake31_crop.jpg,3,19,1.0,187.0,2,2583.606,53.0,19.0,DON'T EAT                                    EAT,2583.036,2564.8875,2478.726
189,0,True,right,avoid,pos,meat28_crop.jpg,3,19,1.0,188.0,1,2585.923,53.0,19.0,DON'T EAT                                    EAT,2585.0542,2564.8875,2478.726
190,0,False,right,approach,pos,cake36_crop.jpg,3,19,1.0,189.0,2,2587.8042,53.0,19.0,DON'T EAT                                    EAT,2587.0725,2564.8875,2478.726
191,0,True,left,approach,neg,insect22_crop.jpg,3,20,1.0,190.0,2,2607.2017,53.0,20.0,DON'T EAT                                    EAT,2606.5054,2602.485,2478.726
192,0,False,left,avoid,pos,meat23_crop.jpg,3,20,1.0,191.0,1,2609.1895,53.0,20.0,DON'T EAT                                    EAT,2608.5232,2602.485,2478.726
193,0,True,left,approach,pos,cake31_crop.jpg,3,20,1.0,192.0,2,2611.4094,53.0,20.0,DON'T EAT                                    EAT,2610.542,2602.485,2478.726
194,0,False,left,avoid,pos,meat34_crop.jpg,3,20,1.0,193.0,1,2613.399,53.0,20.0,DON'T EAT                                    EAT,2612.5603,2602.485,2478.726
195,0,False,left,avoid,pos,meat26_crop.jpg,3,20,1.0,194.0,1,2615.3079,53.0,20.0,DON'T EAT                                    EAT,2614.5786,2602.485,2478.726
196,0,False,left,avoid,pos,meat39_crop.jpg,3,20,1.0,195.0,1,2617.2776,53.0,20.0,DON'T EAT                                    EAT,2616.5972,2602.485,2478.726
197,0,False,left,avoid,pos,meat18_crop.jpg,3,20,1.0,196.0,1,2619.2866,53.0,20.0,DON'T EAT                                    EAT,2618.6155,2602.485,2478.726
198,0,False,left,avoid,pos,meat29_crop.jpg,3,20,1.0,197.0,1,2621.3018,53.0,20.0,DON'T EAT                                    EAT,2620.634,2602.485,2478.726
199,0,False,left,avoid,pos,meat30_crop.jpg,3,20,1.0,198.0,1,2623.3972,53.0,20.0,DON'T EAT                                    EAT,2622.652,2602.485,2478.726
200,0,False,left,avoid,pos,meat25_crop.jpg,3,20,1.0,199.0,1,2625.251,53.0,20.0,DON'T EAT                                    EAT,2624.6704,2602.485,2478.726
201,2,False,right,approach,pos,cake4_crop.jpg,3,21,1.0,200.0,2,2645.395,53.0,21.0,DON'T EAT                                    EAT,2644.5703,2640.55,2478.726
202,2,False,right,approach,pos,cake37_crop.jpg,3,21,1.0,201.0,2,2647.1907,53.0,21.0,DON'T EAT                                    EAT,2646.5886,2640.55,2478.726
203,2,False,right,approach,pos,cake24_crop.jpg,3,21,1.0,202.0,2,2649.2175,53.0,21.0,DON'T EAT                                    EAT,2648.607,2640.55,2478.726
204,2,True,right,avoid,pos,meat15_crop.jpg,3,21,1.0,203.0,1,2651.7249,53.0,21.0,DON'T EAT                                    EAT,2650.6252,2640.55,2478.726
205,2,False,right,approach,pos,cake1_crop.jpg,3,21,1.0,204.0,2,2653.3203,53.0,21.0,DON'T EAT                                    EAT,2652.6438,2640.55,2478.726
206,2,False,right,approach,pos,cake3_crop.jpg,3,21,1.0,205.0,2,2655.2102,53.0,21.0,DON'T EAT                                    EAT,2654.662,2640.55,2478.726
207,2,True,right,avoid,neg,fungus21_crop.jpg,3,21,1.0,206.0,1,2657.3904,53.0,21.0,DON'T EAT                                    EAT,2656.6804,2640.55,2478.726
208,2,False,right,approach,pos,cake16_crop.jpg,3,21,1.0,207.0,2,2659.259,53.0,21.0,DON'T EAT                                    EAT,2658.6987,2640.55,2478.726
209,2,False,right,approach,pos,cake30_crop.jpg,3,21,1.0,208.0,2,2661.4934,53.0,21.0,DON'T EAT                                    EAT,2660.717,2640.55,2478.726
210,2,False,right,approach,pos,cake20_crop.jpg,3,21,1.0,209.0,2,2663.349,53.0,21.0,DON'T EAT                                    EAT,2662.7354,2640.55,2478.726
211,3,False,left,approach,pos,cake22_crop.jpg,3,22,1.0,210.0,2,2682.7512,53.0,22.0,DON'T EAT                                    EAT,2682.0508,2678.0315,2478.726
212,3,False,left,approach,pos,cake3_crop.jpg,3,22,1.0,211.0,2,2684.5696,53.0,22.0,DON'T EAT                                    EAT,2684.0698,2678.0315,2478.726
213,3,True,left,avoid,neg,fungus10_crop.jpg,3,22,1.0,212.0,1,2686.7524,53.0,22.0,DON'T EAT                                    EAT,2686.088,2678.0315,2478.726
214,3,False,left,approach,pos,cake2_crop.jpg,3,22,1.0,213.0,2,2688.68,53.0,22.0,DON'T EAT                                    EAT,2688.1067,2678.0315,2478.726
215,3,False,left,approach,pos,cake17_crop.jpg,3,22,1.0,214.0,2,2690.9255,53.0,22.0,DON'T EAT                                    EAT,2690.1243,2678.0315,2478.726
216,3,False,left,approach,pos,cake33_crop.jpg,3,22,1.0,215.0,2,2692.6946,53.0,22.0,DON'T EAT                                    EAT,2692.143,2678.0315,2478.726
217,3,False,left,approach,pos,cake39_crop.jpg,3,22,1.0,216.0,2,2694.9336,53.0,22.0,DON'T EAT                                    EAT,2694.1611,2678.0315,2478.726
218,3,False,left,approach,pos,cake21_crop.jpg,3,22,1.0,217.0,2,2696.7505,53.0,22.0,DON'T EAT                                    EAT,2696.1797,2678.0315,2478.726
219,3,False,left,approach,pos,cake20_crop.jpg,3,22,1.0,218.0,2,2698.9688,53.0,22.0,DON'T EAT                                    EAT,2698.1978,2678.0315,2478.726
220,3,True,left,avoid,pos,meat7_crop.jpg,3,22,1.0,219.0,1,2700.9482,53.0,22.0,DON'T EAT                                    EAT,2700.2166,2678.0315,2478.726
221,3,False,right,avoid,neg,fungus9_crop.jpg,3,23,1.0,220.0,1,2718.6187,53.0,23.0,DON'T EAT                                    EAT,2717.8977,2713.8777,2478.726
222,3,False,right,avoid,neg,fungus36_crop.jpg,3,23,1.0,221.0,1,2720.4736,53.0,23.0,DON'T EAT                                    EAT,2719.9163,2713.8777,2478.726
223,3,False,right,avoid,neg,fungus38_crop.jpg,3,23,1.0,222.0,1,2722.4985,53.0,23.0,DON'T EAT                                    EAT,2721.934,2713.8777,2478.726
224,3,True,right,approach,neg,insect5_crop.jpg,3,23,1.0,223.0,2,2724.6965,53.0,23.0,DON'T EAT                                    EAT,2723.953,2713.8777,2478.726
225,3,False,right,avoid,neg,fungus19_crop.jpg,3,23,1.0,224.0,1,2726.6252,53.0,23.0,DON'T EAT                                    EAT,2725.9712,2713.8777,2478.726
226,3,False,right,avoid,neg,fungus12_crop.jpg,3,23,1.0,225.0,1,2728.6675,53.0,23.0,DON'T EAT                                    EAT,2727.9895,2713.8777,2478.726
227,3,True,right,approach,pos,cake40_crop.jpg,3,23,1.0,226.0,2,2730.728,53.0,23.0,DON'T EAT                                    EAT,2730.0076,2713.8777,2478.726
228,3,False,right,avoid,neg,fungus16_crop.jpg,3,23,1.0,227.0,1,2732.695,53.0,23.0,DON'T EAT                                    EAT,2732.026,2713.8777,2478.726
229,3,False,right,avoid,neg,fungus23_crop.jpg,3,23,1.0,228.0,1,2734.7305,53.0,23.0,DON'T EAT                                    EAT,2734.0444,2713.8777,2478.726
230,3,False,right,avoid,neg,fungus17_crop.jpg,3,23,1.0,229.0,1,2736.7383,53.0,23.0,DON'T EAT                                    EAT,2736.063,2713.8777,2478.726
231,2,False,left,avoid,pos,meat12_crop.jpg,3,24,1.0,230.0,1,2753.987,53.0,24.0,DON'T EAT                                    EAT,2753.127,2749.1072,2478.726
232,2,False,left,avoid,pos,meat36_crop.jpg,3,24,1.0,231.0,1,2755.7563,53.0,24.0,DON'T EAT                                    EAT,2755.1455,2749.1072,2478.726
233,2,False,left,avoid,pos,meat10_crop.jpg,3,24,1.0,232.0,1,2757.735,53.0,24.0,DON'T EAT                                    EAT,2757.1638,2749.1072,2478.726
234,2,False,left,avoid,pos,meat5_crop.jpg,3,24,1.0,233.0,1,2759.7637,53.0,24.0,DON'T EAT                                    EAT,2759.1821,2749.1072,2478.726
235,2,False,left,avoid,pos,meat24_crop.jpg,3,24,1.0,234.0,1,2761.845,53.0,24.0,DON'T EAT                                    EAT,2761.2004,2749.1072,2478.726
236,2,True,left,approach,neg,insect19_crop.jpg,3,24,1.0,235.0,2,2763.8535,53.0,24.0,DON'T EAT                                    EAT,2763.2188,2749.1072,2478.726
237,2,False,left,avoid,pos,meat33_crop.jpg,3,24,1.0,236.0,1,2765.8186,53.0,24.0,DON'T EAT                                    EAT,2765.2373,2749.1072,2478.726
238,2,True,left,approach,pos,cake10_crop.jpg,3,24,1.0,237.0,2,2768.2053,53.0,24.0,DON'T EAT                                    EAT,2767.2556,2749.1072,2478.726
239,2,False,left,avoid,pos,meat13_crop.jpg,3,24,1.0,238.0,1,2769.9836,53.0,24.0,DON'T EAT                                    EAT,2769.274,2749.1072,2478.726
240,2,False,left,avoid,pos,meat35_crop.jpg,3,24,1.0,239.0,1,2772.0168,53.0,24.0,DON'T EAT                                    EAT,2771.2922,2749.1072,2478.726
241,1,False,right,approach,pos,cake10_crop.jpg,4,25,1.0,240.0,2,2888.9976,53.0,25.0,DON'T EAT                                    EAT,2887.8225,2883.8022,2873.5781
242,1,False,right,approach,pos,cake29_crop.jpg,4,25,1.0,241.0,2,2890.3806,53.0,25.0,DON'T EAT                                    EAT,2889.8406,2883.8022,2873.5781
243,1,False,right,approach,pos,cake15_crop.jpg,4,25,1.0,242.0,2,2892.287,53.0,25.0,DON'T EAT                                    EAT,2891.8591,2883.8022,2873.5781
244,1,False,right,approach,pos,cake6_crop.jpg,4,25,1.0,243.0,2,2894.3455,53.0,25.0,DON'T EAT                                    EAT,2893.8774,2883.8022,2873.5781
245,1,False,right,approach,pos,cake32_crop.jpg,4,25,1.0,244.0,2,2896.32,53.0,25.0,DON'T EAT                                    EAT,2895.8958,2883.8022,2873.5781
246,1,False,right,approach,pos,cake25_crop.jpg,4,25,1.0,245.0,2,2898.3464,53.0,25.0,DON'T EAT                                    EAT,2897.9143,2883.8022,2873.5781
247,1,False,right,approach,pos,cake28_crop.jpg,4,25,1.0,246.0,2,2900.3347,53.0,25.0,DON'T EAT                                    EAT,2899.9324,2883.8022,2873.5781
248,1,True,right,avoid,neg,fungus27_crop.jpg,4,25,1.0,247.0,1,2902.6047,53.0,25.0,DON'T EAT                                    EAT,2901.9507,2883.8022,2873.5781
249,1,True,right,avoid,pos,meat14_crop.jpg,4,25,1.0,248.0,1,2904.9094,53.0,25.0,DON'T EAT                                    EAT,2903.9692,2883.8022,2873.5781
250,1,False,right,approach,pos,cake34_crop.jpg,4,25,1.0,249.0,2,2906.8672,53.0,25.0,DON'T EAT                                    EAT,2905.9875,2883.8022,2873.5781
251,1,False,left,approach,pos,cake15_crop.jpg,4,26,1.0,250.0,2,2926.582,53.0,26.0,DON'T EAT                                    EAT,2925.7039,2921.6836,2873.5781
252,1,True,left,avoid,pos,meat3_crop.jpg,4,26,1.0,251.0,1,2928.4502,53.0,26.0,DON'T EAT                                    EAT,2927.7222,2921.6836,2873.5781
253,1,False,left,approach,pos,cake5_crop.jpg,4,26,1.0,252.0,2,2930.5347,53.0,26.0,DON'T EAT                                    EAT,2929.7407,2921.6836,2873.5781
254,1,False,left,approach,pos,cake40_crop.jpg,4,26,1.0,253.0,2,2932.474,53.0,26.0,DON'T EAT                                    EAT,2931.7588,2921.6836,2873.5781
255,1,False,left,approach,pos,cake25_crop.jpg,4,26,1.0,254.0,2,2934.454,53.0,26.0,DON'T EAT                                    EAT,2933.7773,2921.6836,2873.5781
256,1,False,left,approach,pos,cake35_crop.jpg,4,26,1.0,255.0,2,2936.3672,53.0,26.0,DON'T EAT                                    EAT,2935.7957,2921.6836,2873.5781
257,1,False,left,approach,pos,cake19_crop.jpg,4,26,1.0,256.0,2,2938.513,53.0,26.0,DON'T EAT                                    EAT,2937.8142,2921.6836,2873.5781
258,1,False,left,approach,pos,cake11_crop.jpg,4,26,1.0,257.0,2,2940.4658,53.0,26.0,DON'T EAT                                    EAT,2939.8323,2921.6836,2873.5781
259,1,False,left,approach,pos,cake6_crop.jpg,4,26,1.0,258.0,2,2942.4897,53.0,26.0,DON'T EAT                                    EAT,2941.8506,2921.6836,2873.5781
260,1,True,left,avoid,neg,fungus8_crop.jpg,4,26,1.0,259.0,1,2944.5896,53.0,26.0,DON'T EAT                                    EAT,2943.869,2921.6836,2873.5781
261,0,False,left,approach,neg,insect6_crop.jpg,4,27,1.0,260.0,2,2961.4084,53.0,27.0,DON'T EAT                                    EAT,2960.5828,2956.5627,2873.5781
262,0,False,left,approach,neg,insect18_crop.jpg,4,27,1.0,261.0,2,2963.123,53.0,27.0,DON'T EAT                                    EAT,2962.6013,2956.5627,2873.5781
263,0,True,left,avoid,neg,fungus14_crop.jpg,4,27,1.0,262.0,1,2965.4336,53.0,27.0,DON'T EAT                                    EAT,2964.6194,2956.5627,2873.5781
264,0,False,left,approach,neg,insect13_crop.jpg,4,27,1.0,263.0,2,2967.1987,53.0,27.0,DON'T EAT                                    EAT,2966.6377,2956.5627,2873.5781
265,0,False,left,approach,neg,insect24_crop.jpg,4,27,1.0,264.0,2,2969.2815,53.0,27.0,DON'T EAT                                    EAT,2968.6562,2956.5627,2873.5781
266,0,False,left,approach,neg,insect2_crop.jpg,4,27,1.0,265.0,2,2971.3535,53.0,27.0,DON'T EAT                                    EAT,2970.6743,2956.5627,2873.5781
267,0,False,left,approach,neg,insect25_crop.jpg,4,27,1.0,266.0,2,2973.2537,53.0,27.0,DON'T EAT                                    EAT,2972.6929,2956.5627,2873.5781
268,0,False,left,approach,neg,insect31_crop.jpg,4,27,1.0,267.0,2,2975.1653,53.0,27.0,DON'T EAT                                    EAT,2974.7112,2956.5627,2873.5781
269,0,True,left,avoid,pos,meat37_crop.jpg,4,27,1.0,268.0,1,2977.491,53.0,27.0,DON'T EAT                                    EAT,2976.7295,2956.5627,2873.5781
270,0,False,left,approach,neg,insect38_crop.jpg,4,27,1.0,269.0,2,2979.3186,53.0,27.0,DON'T EAT                                    EAT,2978.7476,2956.5627,2873.5781
271,1,True,right,avoid,pos,meat13_crop.jpg,4,28,1.0,270.0,1,2999.738,53.0,28.0,DON'T EAT                                    EAT,2998.531,2994.511,2873.5781
272,1,False,right,approach,neg,insect2_crop.jpg,4,28,1.0,271.0,2,3001.2173,53.0,28.0,DON'T EAT                                    EAT,3000.5493,2994.511,2873.5781
273,1,False,right,approach,neg,insect1_crop.jpg,4,28,1.0,272.0,2,3003.1912,53.0,28.0,DON'T EAT                                    EAT,3002.5679,2994.511,2873.5781
274,1,False,right,approach,neg,insect18_crop.jpg,4,28,1.0,273.0,2,3005.0908,53.0,28.0,DON'T EAT                                    EAT,3004.5857,2994.511,2873.5781
275,1,False,right,approach,neg,insect27_crop.jpg,4,28,1.0,274.0,2,3006.995,53.0,28.0,DON'T EAT                                    EAT,3006.6042,2994.511,2873.5781
276,1,False,right,approach,neg,insect35_crop.jpg,4,28,1.0,275.0,2,3009.0776,53.0,28.0,DON'T EAT                                    EAT,3008.6228,2994.511,2873.5781
277,1,False,right,approach,neg,insect31_crop.jpg,4,28,1.0,276.0,2,3011.0737,53.0,28.0,DON'T EAT                                    EAT,3010.6409,2994.511,2873.5781
278,1,False,right,approach,neg,insect36_crop.jpg,4,28,1.0,277.0,2,3013.3286,53.0,28.0,DON'T EAT                                    EAT,3012.6594,2994.511,2873.5781
279,1,False,right,approach,neg,insect28_crop.jpg,4,28,1.0,278.0,2,3015.1943,53.0,28.0,DON'T EAT                                    EAT,3014.6777,2994.511,2873.5781
280,1,True,right,avoid,neg,fungus28_crop.jpg,4,28,1.0,279.0,1,3017.3936,53.0,28.0,DON'T EAT                                    EAT,3016.696,2994.511,2873.5781
281,2,False,right,approach,neg,insect32_crop.jpg,4,29,1.0,280.0,2,3034.989,53.0,29.0,DON'T EAT                                    EAT,3034.3108,3030.2908,2873.5781
282,2,False,right,approach,neg,insect9_crop.jpg,4,29,1.0,281.0,2,3036.814,53.0,29.0,DON'T EAT                                    EAT,3036.329,3030.2908,2873.5781
283,2,False,right,approach,neg,insect14_crop.jpg,4,29,1.0,282.0,2,3038.8013,53.0,29.0,DON'T EAT                                    EAT,3038.3477,3030.2908,2873.5781
284,2,True,right,avoid,neg,fungus34_crop.jpg,4,29,1.0,283.0,1,3040.991,53.0,29.0,DON'T EAT                                    EAT,3040.3657,3030.2908,2873.5781
285,2,False,right,approach,neg,insect6_crop.jpg,4,29,1.0,284.0,2,3042.9224,53.0,29.0,DON'T EAT                                    EAT,3042.384,3030.2908,2873.5781
286,2,False,right,approach,neg,insect34_crop.jpg,4,29,1.0,285.0,2,3045.207,53.0,29.0,DON'T EAT                                    EAT,3044.4023,3030.2908,2873.5781
287,2,False,right,approach,neg,insect19_crop.jpg,4,29,1.0,286.0,2,3047.0134,53.0,29.0,DON'T EAT                                    EAT,3046.4207,3030.2908,2873.5781
288,2,False,right,approach,neg,insect39_crop.jpg,4,29,1.0,287.0,2,3049.3577,53.0,29.0,DON'T EAT                                    EAT,3048.4392,3030.2908,2873.5781
289,2,True,right,avoid,pos,meat22_crop.jpg,4,29,1.0,288.0,1,3051.1682,53.0,29.0,DON'T EAT                                    EAT,3050.4575,3030.2908,2873.5781
290,2,False,right,approach,neg,insect29_crop.jpg,4,29,1.0,289.0,2,3053.318,53.0,29.0,DON'T EAT                                    EAT,3052.4758,3030.2908,2873.5781
291,2,True,right,approach,neg,insect8_crop.jpg,4,30,1.0,290.0,2,3072.3174,53.0,30.0,DON'T EAT                                    EAT,3071.625,3067.6047,2873.5781
292,2,False,right,avoid,pos,meat39_crop.jpg,4,30,1.0,291.0,1,3074.7986,53.0,30.0,DON'T EAT                                    EAT,3073.6436,3067.6047,2873.5781
293,2,False,right,avoid,pos,meat30_crop.jpg,4,30,1.0,292.0,1,3076.4775,53.0,30.0,DON'T EAT                                    EAT,3075.6619,3067.6047,2873.5781
294,2,False,right,avoid,pos,meat37_crop.jpg,4,30,1.0,293.0,1,3078.3882,53.0,30.0,DON'T EAT                                    EAT,3077.68,3067.6047,2873.5781
295,2,False,right,avoid,pos,meat35_crop.jpg,4,30,1.0,294.0,1,3080.2275,53.0,30.0,DON'T EAT                                    EAT,3079.6982,3067.6047,2873.5781
296,2,False,right,avoid,pos,meat27_crop.jpg,4,30,1.0,295.0,1,3082.2598,53.0,30.0,DON'T EAT                                    EAT,3081.7168,3067.6047,2873.5781
297,2,False,right,avoid,pos,meat36_crop.jpg,4,30,1.0,296.0,1,3084.179,53.0,30.0,DON'T EAT                                    EAT,3083.7349,3067.6047,2873.5781
298,2,False,right,avoid,pos,meat5_crop.jpg,4,30,1.0,297.0,1,3086.4312,53.0,30.0,DON'T EAT                                    EAT,3085.7534,3067.6047,2873.5781
299,2,False,right,avoid,pos,meat18_crop.jpg,4,30,1.0,298.0,1,3088.3672,53.0,30.0,DON'T EAT                                    EAT,3087.7717,3067.6047,2873.5781
300,2,True,right,approach,pos,cake18_crop.jpg,4,30,1.0,299.0,2,3090.6487,53.0,30.0,DON'T EAT                                    EAT,3089.79,3067.6047,2873.5781
301,3,True,right,avoid,pos,meat9_crop.jpg,4,31,1.0,300.0,1,3107.5967,53.0,31.0,DON'T EAT                                    EAT,3106.4539,3102.4338,2873.5781
302,3,False,right,approach,neg,insect24_crop.jpg,4,31,1.0,301.0,2,3109.1165,53.0,31.0,DON'T EAT                                    EAT,3108.4724,3102.4338,2873.5781
303,3,False,right,approach,neg,insect33_crop.jpg,4,31,1.0,302.0,2,3111.0618,53.0,31.0,DON'T EAT                                    EAT,3110.4907,3102.4338,2873.5781
304,3,False,right,approach,neg,insect37_crop.jpg,4,31,1.0,303.0,2,3113.1545,53.0,31.0,DON'T EAT                                    EAT,3112.509,3102.4338,2873.5781
305,3,False,right,approach,neg,insect11_crop.jpg,4,31,1.0,304.0,2,3115.131,53.0,31.0,DON'T EAT                                    EAT,3114.5273,3102.4338,2873.5781
306,3,False,right,approach,neg,insect12_crop.jpg,4,31,1.0,305.0,2,3117.1482,53.0,31.0,DON'T EAT                                    EAT,3116.5457,3102.4338,2873.5781
307,3,False,right,approach,neg,insect38_crop.jpg,4,31,1.0,306.0,2,3119.1775,53.0,31.0,DON'T EAT                                    EAT,3118.5642,3102.4338,2873.5781
308,3,False,right,approach,neg,insect40_crop.jpg,4,31,1.0,307.0,2,3121.253,53.0,31.0,DON'T EAT                                    EAT,3120.5823,3102.4338,2873.5781
309,3,False,right,approach,neg,insect4_crop.jpg,4,31,1.0,308.0,2,3123.4175,53.0,31.0,DON'T EAT                                    EAT,3122.6008,3102.4338,2873.5781
310,3,True,right,avoid,neg,fungus32_crop.jpg,4,31,1.0,309.0,1,3125.41,53.0,31.0,DON'T EAT                                    EAT,3124.619,3102.4338,2873.5781
311,0,False,left,avoid,neg,fungus29_crop.jpg,4,32,1.0,310.0,1,3143.2065,53.0,32.0,DON'T EAT                                    EAT,3142.4,3138.3804,2873.5781
312,0,False,left,avoid,neg,fungus35_crop.jpg,4,32,1.0,311.0,1,3145.0647,53.0,32.0,DON'T EAT                                    EAT,3144.419,3138.3804,2873.5781
313,0,False,left,avoid,neg,fungus13_crop.jpg,4,32,1.0,312.0,1,3147.0496,53.0,32.0,DON'T EAT                                    EAT,3146.4373,3138.3804,2873.5781
314,0,False,left,avoid,neg,fungus28_crop.jpg,4,32,1.0,313.0,1,3149.1572,53.0,32.0,DON'T EAT                                    EAT,3148.4556,3138.3804,2873.5781
315,0,False,left,avoid,neg,fungus38_crop.jpg,4,32,1.0,314.0,1,3151.0881,53.0,32.0,DON'T EAT                                    EAT,3150.474,3138.3804,2873.5781
316,0,True,left,approach,neg,insect35_crop.jpg,4,32,1.0,315.0,2,3153.3374,53.0,32.0,DON'T EAT                                    EAT,3152.4922,3138.3804,2873.5781
317,0,False,left,avoid,neg,fungus19_crop.jpg,4,32,1.0,316.0,1,3155.044,53.0,32.0,DON'T EAT                                    EAT,3154.5105,3138.3804,2873.5781
318,0,True,left,approach,pos,cake27_crop.jpg,4,32,1.0,317.0,2,3157.324,53.0,32.0,DON'T EAT                                    EAT,3156.5288,3138.3804,2873.5781
319,0,False,left,avoid,neg,fungus20_crop.jpg,4,32,1.0,318.0,1,3159.258,53.0,32.0,DON'T EAT                                    EAT,3158.5474,3138.3804,2873.5781
320,0,False,left,avoid,neg,fungus5_crop.jpg,4,32,1.0,319.0,1,3161.2334,53.0,32.0,DON'T EAT                                    EAT,3160.5657,3138.3804,2873.5781
