subject,trial_number,n_block,catch,hand,mot,val,stim_name,run_number,num_block,ran,order,response,time_of_response,subject_number,left_side_resp_label,trial_onset,blk_instr_onset,baseline_onset,response_hand,response_cleaned,response_lat,response_lat_cleaned,response_meaning,response_meaning_cleaned,condition_mot,condition_val,condition,correct,correct_cleaned,rt
sub-058,1,1,FALSE,right,approach,neg,insect26_crop.jpg,1,1,TRUE,0,1,1467.721,58,EAT                                    DON'T EAT,1466.8103,1462.79,1451.3687,right,1,left,left,eat,eat,approach,neg,approach-neg,1,1,910.6999999999534
sub-058,2,1,FALSE,right,approach,neg,insect17_crop.jpg,1,1,TRUE,1,1,1469.5278,58,EAT                                    DON'T EAT,1468.8285,1462.79,1451.3687,right,1,left,left,eat,eat,approach,neg,approach-neg,1,1,699.3000000000466
sub-058,3,1,FALSE,right,approach,neg,insect16_crop.jpg,1,1,TRUE,2,1,1471.42,58,EAT                                    DON'T EAT,1470.8467,1462.79,1451.3687,right,1,left,left,eat,eat,approach,neg,approach-neg,1,1,573.3000000000466
sub-058,4,1,FALSE,right,approach,neg,insect27_crop.jpg,1,1,TRUE,3,1,1473.495,58,EAT                                    DON'T EAT,1472.8694,1462.79,1451.3687,right,1,left,left,eat,eat,approach,neg,approach-neg,1,1,625.5999999998603
sub-058,5,1,TRUE,right,avoid,neg,fungus5_crop.jpg,1,1,TRUE,4,--,NA,58,EAT                                    DON'T EAT,1474.8855,1462.79,1451.3687,right,2,NA,right,no_response,not_eat,approach,neg,approach-neg,NA,1,NA
sub-058,6,1,FALSE,right,approach,neg,insect33_crop.jpg,1,1,TRUE,5,1,1477.5837,58,EAT                                    DON'T EAT,1476.9015,1462.79,1451.3687,right,1,left,left,eat,eat,approach,neg,approach-neg,1,1,682.1999999999534
sub-058,7,1,FALSE,right,approach,neg,insect35_crop.jpg,1,1,TRUE,6,1,1479.4927,58,EAT                                    DON'T EAT,1478.9202,1462.79,1451.3687,right,1,left,left,eat,eat,approach,neg,approach-neg,1,1,572.5
sub-058,8,1,TRUE,right,avoid,pos,meat14_crop.jpg,1,1,TRUE,7,1,1481.8267,58,EAT                                    DON'T EAT,1480.9385,1462.79,1451.3687,right,1,left,left,eat,eat,approach,neg,approach-neg,0,0,888.2000000001863
sub-058,9,1,FALSE,right,approach,neg,insect7_crop.jpg,1,1,TRUE,8,1,1483.7631,58,EAT                                    DON'T EAT,1482.9567,1462.79,1451.3687,right,1,left,left,eat,eat,approach,neg,approach-neg,1,1,806.3999999999069
sub-058,10,1,FALSE,right,approach,neg,insect12_crop.jpg,1,1,TRUE,9,1,1485.5885,58,EAT                                    DON'T EAT,1484.9752,1462.79,1451.3687,right,1,left,left,eat,eat,approach,neg,approach-neg,1,1,613.2999999998137
sub-058,11,0,FALSE,right,avoid,pos,meat22_crop.jpg,1,2,TRUE,10,--,NA,58,EAT                                    DON'T EAT,1504.8584,1500.8381,1451.3687,right,2,NA,right,no_response,not_eat,avoid,pos,avoid-pos,NA,1,NA
sub-058,12,0,FALSE,right,avoid,pos,meat1_crop.jpg,1,2,TRUE,11,--,NA,58,EAT                                    DON'T EAT,1506.8767,1500.8381,1451.3687,right,2,NA,right,no_response,not_eat,avoid,pos,avoid-pos,NA,1,NA
sub-058,13,0,FALSE,right,avoid,pos,meat15_crop.jpg,1,2,TRUE,12,--,NA,58,EAT                                    DON'T EAT,1508.895,1500.8381,1451.3687,right,2,NA,right,no_response,not_eat,avoid,pos,avoid-pos,NA,1,NA
sub-058,14,0,TRUE,right,approach,neg,insect24_crop.jpg,1,2,TRUE,13,1,1511.7612,58,EAT                                    DON'T EAT,1510.9135,1500.8381,1451.3687,right,1,left,left,eat,eat,avoid,pos,avoid-pos,1,1,847.6999999999534
sub-058,15,0,FALSE,right,avoid,pos,meat30_crop.jpg,1,2,TRUE,14,--,NA,58,EAT                                    DON'T EAT,1512.9318,1500.8381,1451.3687,right,2,NA,right,no_response,not_eat,avoid,pos,avoid-pos,NA,1,NA
sub-058,16,0,TRUE,right,approach,pos,cake40_crop.jpg,1,2,TRUE,15,1,1515.8885,58,EAT                                    DON'T EAT,1514.9501,1500.8381,1451.3687,right,1,left,left,eat,eat,avoid,pos,avoid-pos,1,1,938.3999999999069
sub-058,17,0,FALSE,right,avoid,pos,meat21_crop.jpg,1,2,TRUE,16,--,NA,58,EAT                                    DON'T EAT,1516.9683,1500.8381,1451.3687,right,2,NA,right,no_response,not_eat,avoid,pos,avoid-pos,NA,1,NA
sub-058,18,0,FALSE,right,avoid,pos,meat12_crop.jpg,1,2,TRUE,17,--,NA,58,EAT                                    DON'T EAT,1518.9867,1500.8381,1451.3687,right,2,NA,right,no_response,not_eat,avoid,pos,avoid-pos,NA,1,NA
sub-058,19,0,FALSE,right,avoid,pos,meat36_crop.jpg,1,2,TRUE,18,--,NA,58,EAT                                    DON'T EAT,1521.0049,1500.8381,1451.3687,right,2,NA,right,no_response,not_eat,avoid,pos,avoid-pos,NA,1,NA
sub-058,20,0,FALSE,right,avoid,pos,meat34_crop.jpg,1,2,TRUE,19,--,NA,58,EAT                                    DON'T EAT,1523.0236,1500.8381,1451.3687,right,2,NA,right,no_response,not_eat,avoid,pos,avoid-pos,NA,1,NA
sub-058,21,0,FALSE,right,approach,neg,insect20_crop.jpg,1,3,TRUE,20,1,1540.9506,58,EAT                                    DON'T EAT,1539.8374,1535.8175,1451.3687,right,1,left,left,eat,eat,approach,neg,approach-neg,1,1,1113.1999999999534
sub-058,22,0,FALSE,right,approach,neg,insect38_crop.jpg,1,3,TRUE,21,1,1542.482,58,EAT                                    DON'T EAT,1541.8557,1535.8175,1451.3687,right,1,left,left,eat,eat,approach,neg,approach-neg,1,1,626.2999999998137
sub-058,23,0,FALSE,right,approach,neg,insect4_crop.jpg,1,3,TRUE,22,1,1544.4578,58,EAT                                    DON'T EAT,1543.8741,1535.8175,1451.3687,right,1,left,left,eat,eat,approach,neg,approach-neg,1,1,583.6999999997206
sub-058,24,0,FALSE,right,approach,neg,insect1_crop.jpg,1,3,TRUE,23,1,1546.8223,58,EAT                                    DON'T EAT,1545.8925,1535.8175,1451.3687,right,1,left,left,eat,eat,approach,neg,approach-neg,1,1,929.8000000000466
sub-058,25,0,TRUE,right,avoid,neg,fungus9_crop.jpg,1,3,TRUE,24,--,NA,58,EAT                                    DON'T EAT,1547.9108,1535.8175,1451.3687,right,2,NA,right,no_response,not_eat,approach,neg,approach-neg,NA,1,NA
sub-058,26,0,FALSE,right,approach,neg,insect5_crop.jpg,1,3,TRUE,25,1,1550.6228,58,EAT                                    DON'T EAT,1549.929,1535.8175,1451.3687,right,1,left,left,eat,eat,approach,neg,approach-neg,1,1,693.8000000000466
sub-058,27,0,FALSE,right,approach,neg,insect11_crop.jpg,1,3,TRUE,26,1,1552.642,58,EAT                                    DON'T EAT,1551.9475,1535.8175,1451.3687,right,1,left,left,eat,eat,approach,neg,approach-neg,1,1,694.5
sub-058,28,0,FALSE,right,approach,neg,insect39_crop.jpg,1,3,TRUE,27,1,1554.6224,58,EAT                                    DON'T EAT,1553.9656,1535.8175,1451.3687,right,1,left,left,eat,eat,approach,neg,approach-neg,1,1,656.7999999998137
sub-058,29,0,FALSE,right,approach,neg,insect3_crop.jpg,1,3,TRUE,28,1,1556.693,58,EAT                                    DON'T EAT,1555.9841,1535.8175,1451.3687,right,1,left,left,eat,eat,approach,neg,approach-neg,1,1,708.9000000001397
sub-058,30,0,TRUE,right,avoid,pos,meat6_crop.jpg,1,3,TRUE,29,--,NA,58,EAT                                    DON'T EAT,1558.0024,1535.8175,1451.3687,right,2,NA,right,no_response,not_eat,approach,neg,approach-neg,NA,1,NA
sub-058,31,2,TRUE,right,approach,pos,cake3_crop.jpg,1,4,TRUE,30,1,1576.6189,58,EAT                                    DON'T EAT,1575.684,1571.6637,1451.3687,right,1,left,left,eat,eat,avoid,neg,avoid-neg,1,1,934.8999999999069
sub-058,32,2,FALSE,right,avoid,neg,fungus16_crop.jpg,1,4,TRUE,31,--,NA,58,EAT                                    DON'T EAT,1577.7021,1571.6637,1451.3687,right,2,NA,right,no_response,not_eat,avoid,neg,avoid-neg,NA,1,NA
sub-058,33,2,TRUE,right,approach,neg,insect21_crop.jpg,1,4,TRUE,32,1,1580.4541,58,EAT                                    DON'T EAT,1579.7207,1571.6637,1451.3687,right,1,left,left,eat,eat,avoid,neg,avoid-neg,1,1,733.399999999674
sub-058,34,2,FALSE,right,avoid,neg,fungus36_crop.jpg,1,4,TRUE,33,--,NA,58,EAT                                    DON'T EAT,1581.739,1571.6637,1451.3687,right,2,NA,right,no_response,not_eat,avoid,neg,avoid-neg,NA,1,NA
sub-058,35,2,FALSE,right,avoid,neg,fungus4_crop.jpg,1,4,TRUE,34,--,NA,58,EAT                                    DON'T EAT,1583.7573,1571.6637,1451.3687,right,2,NA,right,no_response,not_eat,avoid,neg,avoid-neg,NA,1,NA
sub-058,36,2,FALSE,right,avoid,neg,fungus34_crop.jpg,1,4,TRUE,35,--,NA,58,EAT                                    DON'T EAT,1585.7754,1571.6637,1451.3687,right,2,NA,right,no_response,not_eat,avoid,neg,avoid-neg,NA,1,NA
sub-058,37,2,FALSE,right,avoid,neg,fungus13_crop.jpg,1,4,TRUE,36,--,NA,58,EAT                                    DON'T EAT,1587.794,1571.6637,1451.3687,right,2,NA,right,no_response,not_eat,avoid,neg,avoid-neg,NA,1,NA
sub-058,38,2,FALSE,right,avoid,neg,fungus20_crop.jpg,1,4,TRUE,37,--,NA,58,EAT                                    DON'T EAT,1589.8121,1571.6637,1451.3687,right,2,NA,right,no_response,not_eat,avoid,neg,avoid-neg,NA,1,NA
sub-058,39,2,FALSE,right,avoid,neg,fungus38_crop.jpg,1,4,TRUE,38,--,NA,58,EAT                                    DON'T EAT,1591.8306,1571.6637,1451.3687,right,2,NA,right,no_response,not_eat,avoid,neg,avoid-neg,NA,1,NA
sub-058,40,2,FALSE,right,avoid,neg,fungus33_crop.jpg,1,4,TRUE,39,--,NA,58,EAT                                    DON'T EAT,1593.8489,1571.6637,1451.3687,right,2,NA,right,no_response,not_eat,avoid,neg,avoid-neg,NA,1,NA
sub-058,41,1,TRUE,right,approach,pos,cake2_crop.jpg,1,5,TRUE,40,1,1611.9526,58,EAT                                    DON'T EAT,1611.0632,1607.0432,1451.3687,right,1,left,left,eat,eat,avoid,neg,avoid-neg,1,1,889.4000000001397
sub-058,42,1,FALSE,right,avoid,neg,fungus27_crop.jpg,1,5,TRUE,41,--,NA,58,EAT                                    DON'T EAT,1613.0815,1607.0432,1451.3687,right,2,NA,right,no_response,not_eat,avoid,neg,avoid-neg,NA,1,NA
sub-058,43,1,FALSE,right,avoid,neg,fungus10_crop.jpg,1,5,TRUE,42,--,NA,58,EAT                                    DON'T EAT,1615.0999,1607.0432,1451.3687,right,2,NA,right,no_response,not_eat,avoid,neg,avoid-neg,NA,1,NA
sub-058,44,1,FALSE,right,avoid,neg,fungus40_crop.jpg,1,5,TRUE,43,--,NA,58,EAT                                    DON'T EAT,1617.1183,1607.0432,1451.3687,right,2,NA,right,no_response,not_eat,avoid,neg,avoid-neg,NA,1,NA
sub-058,45,1,FALSE,right,avoid,neg,fungus35_crop.jpg,1,5,TRUE,44,--,NA,58,EAT                                    DON'T EAT,1619.1366,1607.0432,1451.3687,right,2,NA,right,no_response,not_eat,avoid,neg,avoid-neg,NA,1,NA
sub-058,46,1,FALSE,right,avoid,neg,fungus26_crop.jpg,1,5,TRUE,45,--,NA,58,EAT                                    DON'T EAT,1621.155,1607.0432,1451.3687,right,2,NA,right,no_response,not_eat,avoid,neg,avoid-neg,NA,1,NA
sub-058,47,1,FALSE,right,avoid,neg,fungus25_crop.jpg,1,5,TRUE,46,--,NA,58,EAT                                    DON'T EAT,1623.1733,1607.0432,1451.3687,right,2,NA,right,no_response,not_eat,avoid,neg,avoid-neg,NA,1,NA
sub-058,48,1,FALSE,right,avoid,neg,fungus2_crop.jpg,1,5,TRUE,47,--,NA,58,EAT                                    DON'T EAT,1625.1917,1607.0432,1451.3687,right,2,NA,right,no_response,not_eat,avoid,neg,avoid-neg,NA,1,NA
sub-058,49,1,FALSE,right,avoid,neg,fungus11_crop.jpg,1,5,TRUE,48,--,NA,58,EAT                                    DON'T EAT,1627.21,1607.0432,1451.3687,right,2,NA,right,no_response,not_eat,avoid,neg,avoid-neg,NA,1,NA
sub-058,50,1,TRUE,right,approach,neg,insect23_crop.jpg,1,5,TRUE,49,1,1630.0854,58,EAT                                    DON'T EAT,1629.2284,1607.0432,1451.3687,right,1,left,left,eat,eat,avoid,neg,avoid-neg,1,1,857
sub-058,51,2,FALSE,right,approach,pos,cake7_crop.jpg,1,6,TRUE,50,1,1648.9225,58,EAT                                    DON'T EAT,1647.8439,1643.8239,1451.3687,right,1,left,left,eat,eat,approach,pos,approach-pos,1,1,1078.5999999998603
sub-058,52,2,FALSE,right,approach,pos,cake36_crop.jpg,1,6,TRUE,51,1,1650.4462,58,EAT                                    DON'T EAT,1649.8622,1643.8239,1451.3687,right,1,left,left,eat,eat,approach,pos,approach-pos,1,1,584.0000000002328
sub-058,53,2,FALSE,right,approach,pos,cake37_crop.jpg,1,6,TRUE,52,1,1652.7148,58,EAT                                    DON'T EAT,1651.8805,1643.8239,1451.3687,right,1,left,left,eat,eat,approach,pos,approach-pos,1,1,834.3000000000466
sub-058,54,2,FALSE,right,approach,pos,cake6_crop.jpg,1,6,TRUE,53,1,1654.4208,58,EAT                                    DON'T EAT,1653.8989,1643.8239,1451.3687,right,1,left,left,eat,eat,approach,pos,approach-pos,1,1,521.9000000001397
sub-058,55,2,TRUE,right,avoid,pos,meat17_crop.jpg,1,6,TRUE,54,--,NA,58,EAT                                    DON'T EAT,1655.9167,1643.8239,1451.3687,right,2,NA,right,no_response,not_eat,approach,pos,approach-pos,NA,1,NA
sub-058,56,2,FALSE,right,approach,pos,cake13_crop.jpg,1,6,TRUE,55,1,1658.5891,58,EAT                                    DON'T EAT,1657.9352,1643.8239,1451.3687,right,1,left,left,eat,eat,approach,pos,approach-pos,1,1,653.8999999999069
sub-058,57,2,FALSE,right,approach,pos,cake33_crop.jpg,1,6,TRUE,56,1,1660.7523,58,EAT                                    DON'T EAT,1659.954,1643.8239,1451.3687,right,1,left,left,eat,eat,approach,pos,approach-pos,1,1,798.3000000000466
sub-058,58,2,TRUE,right,avoid,neg,fungus22_crop.jpg,1,6,TRUE,57,--,NA,58,EAT                                    DON'T EAT,1661.9723,1643.8239,1451.3687,right,2,NA,right,no_response,not_eat,approach,pos,approach-pos,NA,1,NA
sub-058,59,2,FALSE,right,approach,pos,cake29_crop.jpg,1,6,TRUE,58,1,1664.8016,58,EAT                                    DON'T EAT,1663.9905,1643.8239,1451.3687,right,1,left,left,eat,eat,approach,pos,approach-pos,1,1,811.1000000000931
sub-058,60,2,FALSE,right,approach,pos,cake15_crop.jpg,1,6,TRUE,59,1,1666.6373,58,EAT                                    DON'T EAT,1666.0088,1643.8239,1451.3687,right,1,left,left,eat,eat,approach,pos,approach-pos,1,1,628.5
sub-058,61,3,FALSE,right,avoid,neg,fungus30_crop.jpg,1,7,TRUE,60,--,NA,58,EAT                                    DON'T EAT,1682.5891,1678.5691,1451.3687,right,2,NA,right,no_response,not_eat,avoid,neg,avoid-neg,NA,1,NA
sub-058,62,3,FALSE,right,avoid,neg,fungus21_crop.jpg,1,7,TRUE,61,--,NA,58,EAT                                    DON'T EAT,1684.6077,1678.5691,1451.3687,right,2,NA,right,no_response,not_eat,avoid,neg,avoid-neg,NA,1,NA
sub-058,63,3,FALSE,right,avoid,neg,fungus17_crop.jpg,1,7,TRUE,62,--,NA,58,EAT                                    DON'T EAT,1686.6261,1678.5691,1451.3687,right,2,NA,right,no_response,not_eat,avoid,neg,avoid-neg,NA,1,NA
sub-058,64,3,FALSE,right,avoid,neg,fungus8_crop.jpg,1,7,TRUE,63,--,NA,58,EAT                                    DON'T EAT,1688.6443,1678.5691,1451.3687,right,2,NA,right,no_response,not_eat,avoid,neg,avoid-neg,NA,1,NA
sub-058,65,3,FALSE,right,avoid,neg,fungus39_crop.jpg,1,7,TRUE,64,--,NA,58,EAT                                    DON'T EAT,1690.6621,1678.5691,1451.3687,right,2,NA,right,no_response,not_eat,avoid,neg,avoid-neg,NA,1,NA
sub-058,66,3,TRUE,right,approach,pos,cake16_crop.jpg,1,7,TRUE,65,1,1693.6477,58,EAT                                    DON'T EAT,1692.6808,1678.5691,1451.3687,right,1,left,left,eat,eat,avoid,neg,avoid-neg,1,1,966.8999999999069
sub-058,67,3,FALSE,right,avoid,neg,fungus37_crop.jpg,1,7,TRUE,66,--,NA,58,EAT                                    DON'T EAT,1694.6995,1678.5691,1451.3687,right,2,NA,right,no_response,not_eat,avoid,neg,avoid-neg,NA,1,NA
sub-058,68,3,TRUE,right,approach,neg,insect18_crop.jpg,1,7,TRUE,67,1,1697.554,58,EAT                                    DON'T EAT,1696.7178,1678.5691,1451.3687,right,1,left,left,eat,eat,avoid,neg,avoid-neg,1,1,836.2000000001863
sub-058,69,3,FALSE,right,avoid,neg,fungus24_crop.jpg,1,7,TRUE,68,--,NA,58,EAT                                    DON'T EAT,1698.736,1678.5691,1451.3687,right,2,NA,right,no_response,not_eat,avoid,neg,avoid-neg,NA,1,NA
sub-058,70,3,FALSE,right,avoid,neg,fungus7_crop.jpg,1,7,TRUE,69,--,NA,58,EAT                                    DON'T EAT,1700.754,1678.5691,1451.3687,right,2,NA,right,no_response,not_eat,avoid,neg,avoid-neg,NA,1,NA
sub-058,71,2,FALSE,left,approach,neg,insect9_crop.jpg,1,8,TRUE,70,1,1719.4642,58,EAT                                    DON'T EAT,1718.6526,1714.6327000000001,1451.3687,right,1,left,left,eat,eat,approach,neg,approach-neg,1,1,811.6000000000931
sub-058,72,2,FALSE,left,approach,neg,insect33_crop.jpg,1,8,TRUE,71,1,1721.2887,58,EAT                                    DON'T EAT,1720.6704,1714.6327000000001,1451.3687,right,1,left,left,eat,eat,approach,neg,approach-neg,1,1,618.3000000000466
sub-058,73,2,FALSE,left,approach,neg,insect36_crop.jpg,1,8,TRUE,72,1,1723.301,58,EAT                                    DON'T EAT,1722.689,1714.6327000000001,1451.3687,right,1,left,left,eat,eat,approach,neg,approach-neg,1,1,612
sub-058,74,2,FALSE,left,approach,neg,insect7_crop.jpg,1,8,TRUE,73,1,1725.4686,58,EAT                                    DON'T EAT,1724.7076,1714.6327000000001,1451.3687,right,1,left,left,eat,eat,approach,neg,approach-neg,1,1,761
sub-058,75,2,TRUE,left,avoid,neg,fungus34_crop.jpg,1,8,TRUE,74,--,NA,58,EAT                                    DON'T EAT,1726.726,1714.6327000000001,1451.3687,right,2,NA,right,no_response,not_eat,approach,neg,approach-neg,NA,1,NA
sub-058,76,2,FALSE,left,approach,neg,insect1_crop.jpg,1,8,TRUE,75,1,1729.4762,58,EAT                                    DON'T EAT,1728.7444,1714.6327000000001,1451.3687,right,1,left,left,eat,eat,approach,neg,approach-neg,1,1,731.7999999998137
sub-058,77,2,FALSE,left,approach,neg,insect16_crop.jpg,1,8,TRUE,76,1,1731.4108,58,EAT                                    DON'T EAT,1730.7623,1714.6327000000001,1451.3687,right,1,left,left,eat,eat,approach,neg,approach-neg,1,1,648.5
sub-058,78,2,FALSE,left,approach,neg,insect2_crop.jpg,1,8,TRUE,77,1,1733.606,58,EAT                                    DON'T EAT,1732.781,1714.6327000000001,1451.3687,right,1,left,left,eat,eat,approach,neg,approach-neg,1,1,825
sub-058,79,2,FALSE,left,approach,neg,insect19_crop.jpg,1,8,TRUE,78,1,1735.6176,58,EAT                                    DON'T EAT,1734.7992,1714.6327000000001,1451.3687,right,1,left,left,eat,eat,approach,neg,approach-neg,1,1,818.4000000001397
sub-058,80,2,TRUE,left,avoid,pos,meat38_crop.jpg,1,8,TRUE,79,--,NA,58,EAT                                    DON'T EAT,1736.8177,1714.6327000000001,1451.3687,right,2,NA,right,no_response,not_eat,approach,neg,approach-neg,NA,1,NA
sub-058,81,0,FALSE,left,avoid,neg,fungus29_crop.jpg,2,9,TRUE,80,--,NA,58,EAT                                    DON'T EAT,1842.5388,1838.5184,1826.1748,left,2,NA,right,no_response,not_eat,avoid,neg,avoid-neg,NA,1,NA
sub-058,82,0,TRUE,left,approach,pos,cake29_crop.jpg,2,9,TRUE,81,1,1845.2776,58,EAT                                    DON'T EAT,1844.5573,1838.5184,1826.1748,left,1,left,left,eat,eat,avoid,neg,avoid-neg,1,1,720.2999999998137
sub-058,83,0,TRUE,left,approach,neg,insect15_crop.jpg,2,9,TRUE,82,1,1847.3148,58,EAT                                    DON'T EAT,1846.5753,1838.5184,1826.1748,left,1,left,left,eat,eat,avoid,neg,avoid-neg,1,1,739.5
sub-058,84,0,FALSE,left,avoid,neg,fungus36_crop.jpg,2,9,TRUE,83,--,NA,58,EAT                                    DON'T EAT,1848.5939,1838.5184,1826.1748,left,2,NA,right,no_response,not_eat,avoid,neg,avoid-neg,NA,1,NA
sub-058,85,0,FALSE,left,avoid,neg,fungus32_crop.jpg,2,9,TRUE,84,--,NA,58,EAT                                    DON'T EAT,1850.6117,1838.5184,1826.1748,left,2,NA,right,no_response,not_eat,avoid,neg,avoid-neg,NA,1,NA
sub-058,86,0,FALSE,left,avoid,neg,fungus5_crop.jpg,2,9,TRUE,85,--,NA,58,EAT                                    DON'T EAT,1852.6305,1838.5184,1826.1748,left,2,NA,right,no_response,not_eat,avoid,neg,avoid-neg,NA,1,NA
sub-058,87,0,FALSE,left,avoid,neg,fungus2_crop.jpg,2,9,TRUE,86,--,NA,58,EAT                                    DON'T EAT,1854.6489,1838.5184,1826.1748,left,2,NA,right,no_response,not_eat,avoid,neg,avoid-neg,NA,1,NA
sub-058,88,0,FALSE,left,avoid,neg,fungus23_crop.jpg,2,9,TRUE,87,--,NA,58,EAT                                    DON'T EAT,1856.6674,1838.5184,1826.1748,left,2,NA,right,no_response,not_eat,avoid,neg,avoid-neg,NA,1,NA
sub-058,89,0,FALSE,left,avoid,neg,fungus20_crop.jpg,2,9,TRUE,88,--,NA,58,EAT                                    DON'T EAT,1858.6857,1838.5184,1826.1748,left,2,NA,right,no_response,not_eat,avoid,neg,avoid-neg,NA,1,NA
sub-058,90,0,FALSE,left,avoid,neg,fungus37_crop.jpg,2,9,TRUE,89,--,NA,58,EAT                                    DON'T EAT,1860.7035,1838.5184,1826.1748,left,2,NA,right,no_response,not_eat,avoid,neg,avoid-neg,NA,1,NA
sub-058,91,1,FALSE,right,avoid,pos,meat33_crop.jpg,2,10,TRUE,90,--,NA,58,EAT                                    DON'T EAT,1880.7035,1876.684,1826.1748,left,2,NA,right,no_response,not_eat,avoid,pos,avoid-pos,NA,1,NA
sub-058,92,1,FALSE,right,avoid,pos,meat31_crop.jpg,2,10,TRUE,91,--,NA,58,EAT                                    DON'T EAT,1882.7223,1876.684,1826.1748,left,2,NA,right,no_response,not_eat,avoid,pos,avoid-pos,NA,1,NA
sub-058,93,1,FALSE,right,avoid,pos,meat27_crop.jpg,2,10,TRUE,92,--,NA,58,EAT                                    DON'T EAT,1884.7406,1876.684,1826.1748,left,2,NA,right,no_response,not_eat,avoid,pos,avoid-pos,NA,1,NA
sub-058,94,1,FALSE,right,avoid,pos,meat26_crop.jpg,2,10,TRUE,93,--,NA,58,EAT                                    DON'T EAT,1886.7589,1876.684,1826.1748,left,2,NA,right,no_response,not_eat,avoid,pos,avoid-pos,NA,1,NA
sub-058,95,1,FALSE,right,avoid,pos,meat25_crop.jpg,2,10,TRUE,94,--,NA,58,EAT                                    DON'T EAT,1888.7773,1876.684,1826.1748,left,2,NA,right,no_response,not_eat,avoid,pos,avoid-pos,NA,1,NA
sub-058,96,1,FALSE,right,avoid,pos,meat32_crop.jpg,2,10,TRUE,95,--,NA,58,EAT                                    DON'T EAT,1890.7952,1876.684,1826.1748,left,2,NA,right,no_response,not_eat,avoid,pos,avoid-pos,NA,1,NA
sub-058,97,1,FALSE,right,avoid,pos,meat16_crop.jpg,2,10,TRUE,96,--,NA,58,EAT                                    DON'T EAT,1892.8141,1876.684,1826.1748,left,2,NA,right,no_response,not_eat,avoid,pos,avoid-pos,NA,1,NA
sub-058,98,1,TRUE,right,approach,pos,cake9_crop.jpg,2,10,TRUE,97,--,NA,58,EAT                                    DON'T EAT,1894.8323,1876.684,1826.1748,left,2,NA,right,no_response,not_eat,avoid,pos,avoid-pos,NA,0,NA
sub-058,99,1,TRUE,right,approach,neg,insect10_crop.jpg,2,10,TRUE,98,1,1897.6244,58,EAT                                    DON'T EAT,1896.8506,1876.684,1826.1748,left,1,left,left,eat,eat,avoid,pos,avoid-pos,1,1,773.7999999998137
sub-058,100,1,FALSE,right,avoid,pos,meat13_crop.jpg,2,10,TRUE,99,--,NA,58,EAT                                    DON'T EAT,1898.8689,1876.684,1826.1748,left,2,NA,right,no_response,not_eat,avoid,pos,avoid-pos,NA,1,NA
sub-058,101,3,FALSE,left,avoid,pos,meat26_crop.jpg,2,11,TRUE,100,--,NA,58,EAT                                    DON'T EAT,1914.949,1910.9286,1826.1748,left,2,NA,right,no_response,not_eat,avoid,pos,avoid-pos,NA,1,NA
sub-058,102,3,FALSE,left,avoid,pos,meat5_crop.jpg,2,11,TRUE,101,--,NA,58,EAT                                    DON'T EAT,1916.9674,1910.9286,1826.1748,left,2,NA,right,no_response,not_eat,avoid,pos,avoid-pos,NA,1,NA
sub-058,103,3,FALSE,left,avoid,pos,meat3_crop.jpg,2,11,TRUE,102,--,NA,58,EAT                                    DON'T EAT,1918.9856,1910.9286,1826.1748,left,2,NA,right,no_response,not_eat,avoid,pos,avoid-pos,NA,1,NA
sub-058,104,3,FALSE,left,avoid,pos,meat35_crop.jpg,2,11,TRUE,103,--,NA,58,EAT                                    DON'T EAT,1921.0035,1910.9286,1826.1748,left,2,NA,right,no_response,not_eat,avoid,pos,avoid-pos,NA,1,NA
sub-058,105,3,TRUE,left,approach,neg,insect25_crop.jpg,2,11,TRUE,104,1,1923.666,58,EAT                                    DON'T EAT,1923.0223,1910.9286,1826.1748,left,1,left,left,eat,eat,avoid,pos,avoid-pos,1,1,643.6999999999534
sub-058,106,3,TRUE,left,approach,pos,cake1_crop.jpg,2,11,TRUE,105,1,1925.6553,58,EAT                                    DON'T EAT,1925.0408,1910.9286,1826.1748,left,1,left,left,eat,eat,avoid,pos,avoid-pos,1,1,614.4999999997672
sub-058,107,3,FALSE,left,avoid,pos,meat12_crop.jpg,2,11,TRUE,106,--,NA,58,EAT                                    DON'T EAT,1927.0587,1910.9286,1826.1748,left,2,NA,right,no_response,not_eat,avoid,pos,avoid-pos,NA,1,NA
sub-058,108,3,FALSE,left,avoid,pos,meat22_crop.jpg,2,11,TRUE,107,--,NA,58,EAT                                    DON'T EAT,1929.0774,1910.9286,1826.1748,left,2,NA,right,no_response,not_eat,avoid,pos,avoid-pos,NA,1,NA
sub-058,109,3,FALSE,left,avoid,pos,meat32_crop.jpg,2,11,TRUE,108,--,NA,58,EAT                                    DON'T EAT,1931.0955,1910.9286,1826.1748,left,2,NA,right,no_response,not_eat,avoid,pos,avoid-pos,NA,1,NA
sub-058,110,3,FALSE,left,avoid,pos,meat27_crop.jpg,2,11,TRUE,109,--,NA,58,EAT                                    DON'T EAT,1933.1141,1910.9286,1826.1748,left,2,NA,right,no_response,not_eat,avoid,pos,avoid-pos,NA,1,NA
sub-058,111,2,FALSE,right,avoid,pos,meat35_crop.jpg,2,12,TRUE,110,--,NA,58,EAT                                    DON'T EAT,1953.0474,1949.027,1826.1748,left,2,NA,right,no_response,not_eat,avoid,pos,avoid-pos,NA,1,NA
sub-058,112,2,FALSE,right,avoid,pos,meat18_crop.jpg,2,12,TRUE,111,--,NA,58,EAT                                    DON'T EAT,1955.0654,1949.027,1826.1748,left,2,NA,right,no_response,not_eat,avoid,pos,avoid-pos,NA,1,NA
sub-058,113,2,FALSE,right,avoid,pos,meat28_crop.jpg,2,12,TRUE,112,--,NA,58,EAT                                    DON'T EAT,1957.084,1949.027,1826.1748,left,2,NA,right,no_response,not_eat,avoid,pos,avoid-pos,NA,1,NA
sub-058,114,2,TRUE,right,approach,neg,insect13_crop.jpg,2,12,TRUE,113,1,1959.8027,58,EAT                                    DON'T EAT,1959.1018,1949.027,1826.1748,left,1,left,left,eat,eat,avoid,pos,avoid-pos,1,1,700.9000000001397
sub-058,115,2,FALSE,right,avoid,pos,meat8_crop.jpg,2,12,TRUE,114,--,NA,58,EAT                                    DON'T EAT,1961.1207,1949.027,1826.1748,left,2,NA,right,no_response,not_eat,avoid,pos,avoid-pos,NA,1,NA
sub-058,116,2,TRUE,right,approach,pos,cake28_crop.jpg,2,12,TRUE,115,1,1963.9001,58,EAT                                    DON'T EAT,1963.1389,1949.027,1826.1748,left,1,left,left,eat,eat,avoid,pos,avoid-pos,1,1,761.2000000001863
sub-058,117,2,FALSE,right,avoid,pos,meat38_crop.jpg,2,12,TRUE,116,--,NA,58,EAT                                    DON'T EAT,1965.1575,1949.027,1826.1748,left,2,NA,right,no_response,not_eat,avoid,pos,avoid-pos,NA,1,NA
sub-058,118,2,FALSE,right,avoid,pos,meat9_crop.jpg,2,12,TRUE,117,--,NA,58,EAT                                    DON'T EAT,1967.1754,1949.027,1826.1748,left,2,NA,right,no_response,not_eat,avoid,pos,avoid-pos,NA,1,NA
sub-058,119,2,FALSE,right,avoid,pos,meat29_crop.jpg,2,12,TRUE,118,--,NA,58,EAT                                    DON'T EAT,1969.1941,1949.027,1826.1748,left,2,NA,right,no_response,not_eat,avoid,pos,avoid-pos,NA,1,NA
sub-058,120,2,FALSE,right,avoid,pos,meat40_crop.jpg,2,12,TRUE,119,--,NA,58,EAT                                    DON'T EAT,1971.2124,1949.027,1826.1748,left,2,NA,right,no_response,not_eat,avoid,pos,avoid-pos,NA,1,NA
sub-058,121,1,TRUE,right,avoid,neg,fungus14_crop.jpg,2,13,TRUE,120,--,NA,58,EAT                                    DON'T EAT,1989.3776,1985.3577,1826.1748,left,2,NA,right,no_response,not_eat,approach,pos,approach-pos,NA,1,NA
sub-058,122,1,TRUE,right,avoid,pos,meat11_crop.jpg,2,13,TRUE,121,--,NA,58,EAT                                    DON'T EAT,1991.3956,1985.3577,1826.1748,left,2,NA,right,no_response,not_eat,approach,pos,approach-pos,NA,1,NA
sub-058,123,1,FALSE,right,approach,pos,cake24_crop.jpg,2,13,TRUE,122,--,NA,58,EAT                                    DON'T EAT,1993.4142,1985.3577,1826.1748,left,2,NA,right,no_response,not_eat,approach,pos,approach-pos,NA,0,NA
sub-058,124,1,FALSE,right,approach,pos,cake11_crop.jpg,2,13,TRUE,123,1,1996.0483,58,EAT                                    DON'T EAT,1995.4326,1985.3577,1826.1748,left,1,left,left,eat,eat,approach,pos,approach-pos,1,1,615.6999999997206
sub-058,125,1,FALSE,right,approach,pos,cake17_crop.jpg,2,13,TRUE,124,1,1998.0226,58,EAT                                    DON'T EAT,1997.4509,1985.3577,1826.1748,left,1,left,left,eat,eat,approach,pos,approach-pos,1,1,571.6999999999534
sub-058,126,1,FALSE,right,approach,pos,cake30_crop.jpg,2,13,TRUE,125,1,2000.1898,58,EAT                                    DON'T EAT,1999.469,1985.3577,1826.1748,left,1,left,left,eat,eat,approach,pos,approach-pos,1,1,720.8000000000466
sub-058,127,1,FALSE,right,approach,pos,cake22_crop.jpg,2,13,TRUE,126,1,2002.1317,58,EAT                                    DON'T EAT,2001.4873,1985.3577,1826.1748,left,1,left,left,eat,eat,approach,pos,approach-pos,1,1,644.3999999999069
sub-058,128,1,FALSE,right,approach,pos,cake23_crop.jpg,2,13,TRUE,127,1,2004.2982,58,EAT                                    DON'T EAT,2003.5055,1985.3577,1826.1748,left,1,left,left,eat,eat,approach,pos,approach-pos,1,1,792.6999999999534
sub-058,129,1,FALSE,right,approach,pos,cake32_crop.jpg,2,13,TRUE,128,1,2006.2753,58,EAT                                    DON'T EAT,2005.5243,1985.3577,1826.1748,left,1,left,left,eat,eat,approach,pos,approach-pos,1,1,751
sub-058,130,1,FALSE,right,approach,pos,cake12_crop.jpg,2,13,TRUE,129,1,2008.147,58,EAT                                    DON'T EAT,2007.5426,1985.3577,1826.1748,left,1,left,left,eat,eat,approach,pos,approach-pos,1,1,604.3999999999069
sub-058,131,3,FALSE,right,approach,neg,insect9_crop.jpg,2,14,TRUE,130,1,2027.7998,58,EAT                                    DON'T EAT,2026.942,2022.922,1826.1748,left,1,left,left,eat,eat,approach,neg,approach-neg,1,1,857.8000000000466
sub-058,132,3,FALSE,right,approach,neg,insect28_crop.jpg,2,14,TRUE,131,1,2029.578,58,EAT                                    DON'T EAT,2028.9603,2022.922,1826.1748,left,1,left,left,eat,eat,approach,neg,approach-neg,1,1,617.6999999999534
sub-058,133,3,FALSE,right,approach,neg,insect2_crop.jpg,2,14,TRUE,132,1,2031.5868,58,EAT                                    DON'T EAT,2030.9783,2022.922,1826.1748,left,1,left,left,eat,eat,approach,neg,approach-neg,1,1,608.5
sub-058,134,3,FALSE,right,approach,neg,insect29_crop.jpg,2,14,TRUE,133,1,2033.8175,58,EAT                                    DON'T EAT,2032.9968,2022.922,1826.1748,left,1,left,left,eat,eat,approach,neg,approach-neg,1,1,820.7000000001863
sub-058,135,3,FALSE,right,approach,neg,insect22_crop.jpg,2,14,TRUE,134,1,2035.79,58,EAT                                    DON'T EAT,2035.0154,2022.922,1826.1748,left,1,left,left,eat,eat,approach,neg,approach-neg,1,1,774.6000000000931
sub-058,136,3,FALSE,right,approach,neg,insect6_crop.jpg,2,14,TRUE,135,1,2037.6079,58,EAT                                    DON'T EAT,2037.0338,2022.922,1826.1748,left,1,left,left,eat,eat,approach,neg,approach-neg,1,1,574.1000000000931
sub-058,137,3,TRUE,right,avoid,neg,fungus18_crop.jpg,2,14,TRUE,136,--,NA,58,EAT                                    DON'T EAT,2039.0519,2022.922,1826.1748,left,2,NA,right,no_response,not_eat,approach,neg,approach-neg,NA,1,NA
sub-058,138,3,FALSE,right,approach,neg,insect37_crop.jpg,2,14,TRUE,137,1,2041.764,58,EAT                                    DON'T EAT,2041.07,2022.922,1826.1748,left,1,left,left,eat,eat,approach,neg,approach-neg,1,1,694
sub-058,139,3,TRUE,right,avoid,pos,meat3_crop.jpg,2,14,TRUE,138,--,NA,58,EAT                                    DON'T EAT,2043.0887,2022.922,1826.1748,left,2,NA,right,no_response,not_eat,approach,neg,approach-neg,NA,1,NA
sub-058,140,3,FALSE,right,approach,neg,insect40_crop.jpg,2,14,TRUE,139,1,2045.836,58,EAT                                    DON'T EAT,2045.1072,2022.922,1826.1748,left,1,left,left,eat,eat,approach,neg,approach-neg,1,1,728.8000000000466
sub-058,141,3,FALSE,left,approach,neg,insect32_crop.jpg,2,15,TRUE,140,1,2063.178,58,EAT                                    DON'T EAT,2062.3713,2058.3516,1826.1748,left,1,left,left,eat,eat,approach,neg,approach-neg,1,1,806.7000000001863
sub-058,142,3,FALSE,left,approach,neg,insect28_crop.jpg,2,15,TRUE,141,1,2064.8975,58,EAT                                    DON'T EAT,2064.39,2058.3516,1826.1748,left,1,left,left,eat,eat,approach,neg,approach-neg,1,1,507.50000000023283
sub-058,143,3,FALSE,left,approach,neg,insect34_crop.jpg,2,15,TRUE,142,1,2066.928,58,EAT                                    DON'T EAT,2066.4082,2058.3516,1826.1748,left,1,left,left,eat,eat,approach,neg,approach-neg,1,1,519.8000000000466
sub-058,144,3,FALSE,left,approach,neg,insect18_crop.jpg,2,15,TRUE,143,1,2068.9465,58,EAT                                    DON'T EAT,2068.4265,2058.3516,1826.1748,left,1,left,left,eat,eat,approach,neg,approach-neg,1,1,520
sub-058,145,3,FALSE,left,approach,neg,insect31_crop.jpg,2,15,TRUE,144,1,2070.9175,58,EAT                                    DON'T EAT,2070.4448,2058.3516,1826.1748,left,1,left,left,eat,eat,approach,neg,approach-neg,1,1,472.6999999997206
sub-058,146,3,FALSE,left,approach,neg,insect11_crop.jpg,2,15,TRUE,145,1,2072.8662,58,EAT                                    DON'T EAT,2072.4634,2058.3516,1826.1748,left,1,left,left,eat,eat,approach,neg,approach-neg,1,1,402.79999999981374
sub-058,147,3,TRUE,left,avoid,neg,fungus8_crop.jpg,2,15,TRUE,146,--,NA,58,EAT                                    DON'T EAT,2074.4814,2058.3516,1826.1748,left,2,NA,right,no_response,not_eat,approach,neg,approach-neg,NA,1,NA
sub-058,148,3,TRUE,left,avoid,pos,meat17_crop.jpg,2,15,TRUE,147,--,NA,58,EAT                                    DON'T EAT,2076.4995,2058.3516,1826.1748,left,2,NA,right,no_response,not_eat,approach,neg,approach-neg,NA,1,NA
sub-058,149,3,FALSE,left,approach,neg,insect12_crop.jpg,2,15,TRUE,148,1,2079.1956,58,EAT                                    DON'T EAT,2078.5183,2058.3516,1826.1748,left,1,left,left,eat,eat,approach,neg,approach-neg,1,1,677.2999999998137
sub-058,150,3,FALSE,left,approach,neg,insect39_crop.jpg,2,15,TRUE,149,1,2081.3804,58,EAT                                    DON'T EAT,2080.5366,2058.3516,1826.1748,left,1,left,left,eat,eat,approach,neg,approach-neg,1,1,843.8000000000466
sub-058,151,1,FALSE,left,approach,pos,cake5_crop.jpg,2,16,TRUE,150,1,2100.484,58,EAT                                    DON'T EAT,2099.7524,2095.7327,1826.1748,left,1,left,left,eat,eat,approach,pos,approach-pos,1,1,731.6000000000931
sub-058,152,1,FALSE,left,approach,pos,cake39_crop.jpg,2,16,TRUE,151,1,2102.428,58,EAT                                    DON'T EAT,2101.771,2095.7327,1826.1748,left,1,left,left,eat,eat,approach,pos,approach-pos,1,1,657
sub-058,153,1,FALSE,left,approach,pos,cake10_crop.jpg,2,16,TRUE,152,1,2104.297,58,EAT                                    DON'T EAT,2103.7888,2095.7327,1826.1748,left,1,left,left,eat,eat,approach,pos,approach-pos,1,1,508.20000000018626
sub-058,154,1,TRUE,left,avoid,neg,fungus33_crop.jpg,2,16,TRUE,153,--,NA,58,EAT                                    DON'T EAT,2105.8076,2095.7327,1826.1748,left,2,NA,right,no_response,not_eat,approach,pos,approach-pos,NA,1,NA
sub-058,155,1,FALSE,left,approach,pos,cake16_crop.jpg,2,16,TRUE,154,1,2108.504,58,EAT                                    DON'T EAT,2107.8257,2095.7327,1826.1748,left,1,left,left,eat,eat,approach,pos,approach-pos,1,1,678.3000000002794
sub-058,156,1,FALSE,left,approach,pos,cake9_crop.jpg,2,16,TRUE,155,1,2110.425,58,EAT                                    DON'T EAT,2109.8442,2095.7327,1826.1748,left,1,left,left,eat,eat,approach,pos,approach-pos,1,1,580.7999999998137
sub-058,157,1,FALSE,left,approach,pos,cake30_crop.jpg,2,16,TRUE,156,1,2112.4348,58,EAT                                    DON'T EAT,2111.8625,2095.7327,1826.1748,left,1,left,left,eat,eat,approach,pos,approach-pos,1,1,572.2999999998137
sub-058,158,1,FALSE,left,approach,pos,cake36_crop.jpg,2,16,TRUE,157,1,2114.388,58,EAT                                    DON'T EAT,2113.8809,2095.7327,1826.1748,left,1,left,left,eat,eat,approach,pos,approach-pos,1,1,507.10000000009313
sub-058,159,1,TRUE,left,avoid,pos,meat30_crop.jpg,2,16,TRUE,158,--,NA,58,EAT                                    DON'T EAT,2115.8992,2095.7327,1826.1748,left,2,NA,right,no_response,not_eat,approach,pos,approach-pos,NA,1,NA
sub-058,160,1,FALSE,left,approach,pos,cake35_crop.jpg,2,16,TRUE,159,1,2118.5393,58,EAT                                    DON'T EAT,2117.9177,2095.7327,1826.1748,left,1,left,left,eat,eat,approach,pos,approach-pos,1,1,621.5999999996275
sub-058,161,2,TRUE,right,avoid,pos,meat20_crop.jpg,3,17,TRUE,160,--,NA,58,EAT                                    DON'T EAT,2209.6604,2205.6401,2195.4019,right,2,NA,right,no_response,not_eat,approach,neg,approach-neg,NA,1,NA
sub-058,162,2,FALSE,right,approach,neg,insect8_crop.jpg,3,17,TRUE,161,1,2212.3252,58,EAT                                    DON'T EAT,2211.679,2205.6401,2195.4019,right,1,left,left,eat,eat,approach,neg,approach-neg,1,1,646.2000000001863
sub-058,163,2,FALSE,right,approach,neg,insect25_crop.jpg,3,17,TRUE,162,1,2214.2683,58,EAT                                    DON'T EAT,2213.6973,2205.6401,2195.4019,right,1,left,left,eat,eat,approach,neg,approach-neg,1,1,571.0000000004657
sub-058,164,2,FALSE,right,approach,neg,insect31_crop.jpg,3,17,TRUE,163,1,2216.2678,58,EAT                                    DON'T EAT,2215.7153,2205.6401,2195.4019,right,1,left,left,eat,eat,approach,neg,approach-neg,1,1,552.5000000004657
sub-058,165,2,TRUE,right,avoid,neg,fungus12_crop.jpg,3,17,TRUE,164,--,NA,58,EAT                                    DON'T EAT,2217.734,2205.6401,2195.4019,right,2,NA,right,no_response,not_eat,approach,neg,approach-neg,NA,1,NA
sub-058,166,2,FALSE,right,approach,neg,insect19_crop.jpg,3,17,TRUE,165,1,2220.4514,58,EAT                                    DON'T EAT,2219.7524,2205.6401,2195.4019,right,1,left,left,eat,eat,approach,neg,approach-neg,1,1,699
sub-058,167,2,FALSE,right,approach,neg,insect15_crop.jpg,3,17,TRUE,166,1,2222.32,58,EAT                                    DON'T EAT,2221.7705,2205.6401,2195.4019,right,1,left,left,eat,eat,approach,neg,approach-neg,1,1,549.5
sub-058,168,2,FALSE,right,approach,neg,insect34_crop.jpg,3,17,TRUE,167,1,2224.339,58,EAT                                    DON'T EAT,2223.789,2205.6401,2195.4019,right,1,left,left,eat,eat,approach,neg,approach-neg,1,1,550
sub-058,169,2,FALSE,right,approach,neg,insect36_crop.jpg,3,17,TRUE,168,1,2226.7263,58,EAT                                    DON'T EAT,2225.8071,2205.6401,2195.4019,right,1,left,left,eat,eat,approach,neg,approach-neg,1,1,919.1999999997206
sub-058,170,2,FALSE,right,approach,neg,insect32_crop.jpg,3,17,TRUE,169,1,2228.548,58,EAT                                    DON'T EAT,2227.8254,2205.6401,2195.4019,right,1,left,left,eat,eat,approach,neg,approach-neg,1,1,722.5999999996275
sub-058,171,2,FALSE,left,approach,pos,cake40_crop.jpg,3,18,TRUE,170,1,2244.9556,58,EAT                                    DON'T EAT,2244.1726,2240.1523,2195.4019,right,1,left,left,eat,eat,approach,pos,approach-pos,1,1,782.9999999995343
sub-058,172,2,FALSE,left,approach,pos,cake4_crop.jpg,3,18,TRUE,171,1,2246.7725,58,EAT                                    DON'T EAT,2246.191,2240.1523,2195.4019,right,1,left,left,eat,eat,approach,pos,approach-pos,1,1,581.5
sub-058,173,2,FALSE,left,approach,pos,cake8_crop.jpg,3,18,TRUE,172,1,2248.8442,58,EAT                                    DON'T EAT,2248.209,2240.1523,2195.4019,right,1,left,left,eat,eat,approach,pos,approach-pos,1,1,635.2000000001863
sub-058,174,2,TRUE,left,avoid,pos,meat1_crop.jpg,3,18,TRUE,173,--,NA,58,EAT                                    DON'T EAT,2250.2275,2240.1523,2195.4019,right,2,NA,right,no_response,not_eat,approach,pos,approach-pos,NA,1,NA
sub-058,175,2,FALSE,left,approach,pos,cake17_crop.jpg,3,18,TRUE,174,1,2252.9004,58,EAT                                    DON'T EAT,2252.246,2240.1523,2195.4019,right,1,left,left,eat,eat,approach,pos,approach-pos,1,1,654.3999999999069
sub-058,176,2,FALSE,left,approach,pos,cake38_crop.jpg,3,18,TRUE,175,1,2254.8167,58,EAT                                    DON'T EAT,2254.2642,2240.1523,2195.4019,right,1,left,left,eat,eat,approach,pos,approach-pos,1,1,552.4999999995343
sub-058,177,2,FALSE,left,approach,pos,cake24_crop.jpg,3,18,TRUE,176,1,2256.8088,58,EAT                                    DON'T EAT,2256.2825,2240.1523,2195.4019,right,1,left,left,eat,eat,approach,pos,approach-pos,1,1,526.2999999998137
sub-058,178,2,TRUE,left,avoid,neg,fungus1_crop.jpg,3,18,TRUE,177,--,NA,58,EAT                                    DON'T EAT,2258.3008,2240.1523,2195.4019,right,2,NA,right,no_response,not_eat,approach,pos,approach-pos,NA,1,NA
sub-058,179,2,FALSE,left,approach,pos,cake3_crop.jpg,3,18,TRUE,178,1,2260.912,58,EAT                                    DON'T EAT,2260.319,2240.1523,2195.4019,right,1,left,left,eat,eat,approach,pos,approach-pos,1,1,593
sub-058,180,2,FALSE,left,approach,pos,cake28_crop.jpg,3,18,TRUE,179,1,2263.0862,58,EAT                                    DON'T EAT,2262.3376,2240.1523,2195.4019,right,1,left,left,eat,eat,approach,pos,approach-pos,1,1,748.6000000005588
sub-058,181,2,FALSE,left,avoid,neg,fungus17_crop.jpg,3,19,TRUE,180,--,NA,58,EAT                                    DON'T EAT,2280.9858,2276.9663,2195.4019,right,2,NA,right,no_response,not_eat,avoid,neg,avoid-neg,NA,1,NA
sub-058,182,2,FALSE,left,avoid,neg,fungus13_crop.jpg,3,19,TRUE,181,--,NA,58,EAT                                    DON'T EAT,2283.0046,2276.9663,2195.4019,right,2,NA,right,no_response,not_eat,avoid,neg,avoid-neg,NA,1,NA
sub-058,183,2,TRUE,left,approach,neg,insect8_crop.jpg,3,19,TRUE,182,1,2285.613,58,EAT                                    DON'T EAT,2285.0232,2276.9663,2195.4019,right,1,left,left,eat,eat,avoid,neg,avoid-neg,1,1,589.7999999998137
sub-058,184,2,FALSE,left,avoid,neg,fungus28_crop.jpg,3,19,TRUE,183,--,NA,58,EAT                                    DON'T EAT,2287.0415,2276.9663,2195.4019,right,2,NA,right,no_response,not_eat,avoid,neg,avoid-neg,NA,1,NA
sub-058,185,2,TRUE,left,approach,pos,cake27_crop.jpg,3,19,TRUE,184,1,2289.8772,58,EAT                                    DON'T EAT,2289.0598,2276.9663,2195.4019,right,1,left,left,eat,eat,avoid,neg,avoid-neg,1,1,817.3999999999069
sub-058,186,2,FALSE,left,avoid,neg,fungus30_crop.jpg,3,19,TRUE,185,--,NA,58,EAT                                    DON'T EAT,2291.0776,2276.9663,2195.4019,right,2,NA,right,no_response,not_eat,avoid,neg,avoid-neg,NA,1,NA
sub-058,187,2,FALSE,left,avoid,neg,fungus6_crop.jpg,3,19,TRUE,186,--,NA,58,EAT                                    DON'T EAT,2293.0964,2276.9663,2195.4019,right,2,NA,right,no_response,not_eat,avoid,neg,avoid-neg,NA,1,NA
sub-058,188,2,FALSE,left,avoid,neg,fungus12_crop.jpg,3,19,TRUE,187,--,NA,58,EAT                                    DON'T EAT,2295.1147,2276.9663,2195.4019,right,2,NA,right,no_response,not_eat,avoid,neg,avoid-neg,NA,1,NA
sub-058,189,2,FALSE,left,avoid,neg,fungus26_crop.jpg,3,19,TRUE,188,--,NA,58,EAT                                    DON'T EAT,2297.1333,2276.9663,2195.4019,right,2,NA,right,no_response,not_eat,avoid,neg,avoid-neg,NA,1,NA
sub-058,190,2,FALSE,left,avoid,neg,fungus10_crop.jpg,3,19,TRUE,189,--,NA,58,EAT                                    DON'T EAT,2299.1514,2276.9663,2195.4019,right,2,NA,right,no_response,not_eat,avoid,neg,avoid-neg,NA,1,NA
sub-058,191,3,FALSE,right,avoid,pos,meat2_crop.jpg,3,20,TRUE,190,--,NA,58,EAT                                    DON'T EAT,2318.3176,2314.297,2195.4019,right,2,NA,right,no_response,not_eat,avoid,pos,avoid-pos,NA,1,NA
sub-058,192,3,FALSE,right,avoid,pos,meat10_crop.jpg,3,20,TRUE,191,--,NA,58,EAT                                    DON'T EAT,2320.336,2314.297,2195.4019,right,2,NA,right,no_response,not_eat,avoid,pos,avoid-pos,NA,1,NA
sub-058,193,3,FALSE,right,avoid,pos,meat39_crop.jpg,3,20,TRUE,192,--,NA,58,EAT                                    DON'T EAT,2322.3535,2314.297,2195.4019,right,2,NA,right,no_response,not_eat,avoid,pos,avoid-pos,NA,1,NA
sub-058,194,3,FALSE,right,avoid,pos,meat37_crop.jpg,3,20,TRUE,193,--,NA,58,EAT                                    DON'T EAT,2324.3726,2314.297,2195.4019,right,2,NA,right,no_response,not_eat,avoid,pos,avoid-pos,NA,1,NA
sub-058,195,3,TRUE,right,approach,pos,cake31_crop.jpg,3,20,TRUE,194,1,2327.0266,58,EAT                                    DON'T EAT,2326.3909,2314.297,2195.4019,right,1,left,left,eat,eat,avoid,pos,avoid-pos,1,1,635.7000000001863
sub-058,196,3,TRUE,right,approach,neg,insect30_crop.jpg,3,20,TRUE,195,1,2329.245,58,EAT                                    DON'T EAT,2328.409,2314.297,2195.4019,right,1,left,left,eat,eat,avoid,pos,avoid-pos,1,1,836
sub-058,197,3,FALSE,right,avoid,pos,meat5_crop.jpg,3,20,TRUE,196,--,NA,58,EAT                                    DON'T EAT,2330.4275,2314.297,2195.4019,right,2,NA,right,no_response,not_eat,avoid,pos,avoid-pos,NA,1,NA
sub-058,198,3,FALSE,right,avoid,pos,meat4_crop.jpg,3,20,TRUE,197,--,NA,58,EAT                                    DON'T EAT,2332.4458,2314.297,2195.4019,right,2,NA,right,no_response,not_eat,avoid,pos,avoid-pos,NA,1,NA
sub-058,199,3,FALSE,right,avoid,pos,meat23_crop.jpg,3,20,TRUE,198,--,NA,58,EAT                                    DON'T EAT,2334.464,2314.297,2195.4019,right,2,NA,right,no_response,not_eat,avoid,pos,avoid-pos,NA,1,NA
sub-058,200,3,FALSE,right,avoid,pos,meat24_crop.jpg,3,20,TRUE,199,--,NA,58,EAT                                    DON'T EAT,2336.4827,2314.297,2195.4019,right,2,NA,right,no_response,not_eat,avoid,pos,avoid-pos,NA,1,NA
sub-058,201,3,FALSE,right,approach,pos,cake34_crop.jpg,3,21,TRUE,200,1,2357.3218,58,EAT                                    DON'T EAT,2356.082,2352.0618,2195.4019,right,1,left,left,eat,eat,approach,pos,approach-pos,1,1,1239.8000000002794
sub-058,202,3,TRUE,right,avoid,pos,meat19_crop.jpg,3,21,TRUE,201,--,NA,58,EAT                                    DON'T EAT,2358.1,2352.0618,2195.4019,right,2,NA,right,no_response,not_eat,approach,pos,approach-pos,NA,1,NA
sub-058,203,3,FALSE,right,approach,pos,cake25_crop.jpg,3,21,TRUE,202,1,2360.8057,58,EAT                                    DON'T EAT,2360.1187,2352.0618,2195.4019,right,1,left,left,eat,eat,approach,pos,approach-pos,1,1,686.9999999995343
sub-058,204,3,FALSE,right,approach,pos,cake1_crop.jpg,3,21,TRUE,203,1,2362.781,58,EAT                                    DON'T EAT,2362.1372,2352.0618,2195.4019,right,1,left,left,eat,eat,approach,pos,approach-pos,1,1,643.7999999998137
sub-058,205,3,TRUE,right,avoid,neg,fungus29_crop.jpg,3,21,TRUE,204,--,NA,58,EAT                                    DON'T EAT,2364.1555,2352.0618,2195.4019,right,2,NA,right,no_response,not_eat,approach,pos,approach-pos,NA,1,NA
sub-058,206,3,FALSE,right,approach,pos,cake5_crop.jpg,3,21,TRUE,205,1,2366.8933,58,EAT                                    DON'T EAT,2366.1736,2352.0618,2195.4019,right,1,left,left,eat,eat,approach,pos,approach-pos,1,1,719.7000000001863
sub-058,207,3,FALSE,right,approach,pos,cake35_crop.jpg,3,21,TRUE,206,1,2368.786,58,EAT                                    DON'T EAT,2368.1921,2352.0618,2195.4019,right,1,left,left,eat,eat,approach,pos,approach-pos,1,1,593.8999999999069
sub-058,208,3,FALSE,right,approach,pos,cake20_crop.jpg,3,21,TRUE,207,1,2370.9846,58,EAT                                    DON'T EAT,2370.2107,2352.0618,2195.4019,right,1,left,left,eat,eat,approach,pos,approach-pos,1,1,773.8999999994412
sub-058,209,3,FALSE,right,approach,pos,cake8_crop.jpg,3,21,TRUE,208,1,2372.7913,58,EAT                                    DON'T EAT,2372.229,2352.0618,2195.4019,right,1,left,left,eat,eat,approach,pos,approach-pos,1,1,562.2999999998137
sub-058,210,3,FALSE,right,approach,pos,cake14_crop.jpg,3,21,TRUE,209,1,2374.859,58,EAT                                    DON'T EAT,2374.2473,2352.0618,2195.4019,right,1,left,left,eat,eat,approach,pos,approach-pos,1,1,611.7000000001863
sub-058,211,1,FALSE,left,approach,neg,insect10_crop.jpg,3,22,TRUE,210,1,2391.8662,58,EAT                                    DON'T EAT,2391.2275,2387.208,2195.4019,right,1,left,left,eat,eat,approach,neg,approach-neg,1,1,638.6999999997206
sub-058,212,1,FALSE,left,approach,neg,insect5_crop.jpg,3,22,TRUE,211,1,2393.7979,58,EAT                                    DON'T EAT,2393.2463,2387.208,2195.4019,right,1,left,left,eat,eat,approach,neg,approach-neg,1,1,551.6000000000931
sub-058,213,1,FALSE,left,approach,neg,insect23_crop.jpg,3,22,TRUE,212,1,2395.953,58,EAT                                    DON'T EAT,2395.2646,2387.208,2195.4019,right,1,left,left,eat,eat,approach,neg,approach-neg,1,1,688.3999999999069
sub-058,214,1,FALSE,left,approach,neg,insect37_crop.jpg,3,22,TRUE,213,1,2397.8862,58,EAT                                    DON'T EAT,2397.283,2387.208,2195.4019,right,1,left,left,eat,eat,approach,neg,approach-neg,1,1,603.1999999997206
sub-058,215,1,TRUE,left,avoid,pos,meat36_crop.jpg,3,22,TRUE,214,--,NA,58,EAT                                    DON'T EAT,2399.3013,2387.208,2195.4019,right,2,NA,right,no_response,not_eat,approach,neg,approach-neg,NA,1,NA
sub-058,216,1,TRUE,left,avoid,neg,fungus22_crop.jpg,3,22,TRUE,215,--,NA,58,EAT                                    DON'T EAT,2401.319,2387.208,2195.4019,right,2,NA,right,no_response,not_eat,approach,neg,approach-neg,NA,1,NA
sub-058,217,1,FALSE,left,approach,neg,insect21_crop.jpg,3,22,TRUE,216,1,2404.0154000000002,58,EAT                                    DON'T EAT,2403.3381,2387.208,2195.4019,right,1,left,left,eat,eat,approach,neg,approach-neg,1,1,677.3000000002794
sub-058,218,1,FALSE,left,approach,neg,insect29_crop.jpg,3,22,TRUE,217,1,2405.9814,58,EAT                                    DON'T EAT,2405.3564,2387.208,2195.4019,right,1,left,left,eat,eat,approach,neg,approach-neg,1,1,625
sub-058,219,1,FALSE,left,approach,neg,insect30_crop.jpg,3,22,TRUE,218,1,2407.8633,58,EAT                                    DON'T EAT,2407.3748,2387.208,2195.4019,right,1,left,left,eat,eat,approach,neg,approach-neg,1,1,488.49999999953434
sub-058,220,1,FALSE,left,approach,neg,insect4_crop.jpg,3,22,TRUE,219,1,2410.0273,58,EAT                                    DON'T EAT,2409.3928,2387.208,2195.4019,right,1,left,left,eat,eat,approach,neg,approach-neg,1,1,634.5
sub-058,221,0,FALSE,left,approach,neg,insect14_crop.jpg,3,23,TRUE,220,1,2426.2898,58,EAT                                    DON'T EAT,2425.5732,2421.5532,2195.4019,right,1,left,left,eat,eat,approach,neg,approach-neg,1,1,716.6000000000931
sub-058,222,0,TRUE,left,avoid,pos,meat21_crop.jpg,3,23,TRUE,221,--,NA,58,EAT                                    DON'T EAT,2427.5916,2421.5532,2195.4019,right,2,NA,right,no_response,not_eat,approach,neg,approach-neg,NA,1,NA
sub-058,223,0,FALSE,left,approach,neg,insect20_crop.jpg,3,23,TRUE,222,1,2430.2878,58,EAT                                    DON'T EAT,2429.6099,2421.5532,2195.4019,right,1,left,left,eat,eat,approach,neg,approach-neg,1,1,677.9000000003725
sub-058,224,0,FALSE,left,approach,neg,insect40_crop.jpg,3,23,TRUE,223,1,2432.3992,58,EAT                                    DON'T EAT,2431.6282,2421.5532,2195.4019,right,1,left,left,eat,eat,approach,neg,approach-neg,1,1,770.9999999995343
sub-058,225,0,FALSE,left,approach,neg,insect35_crop.jpg,3,23,TRUE,224,1,2434.226,58,EAT                                    DON'T EAT,2433.6465,2421.5532,2195.4019,right,1,left,left,eat,eat,approach,neg,approach-neg,1,1,579.5
sub-058,226,0,FALSE,left,approach,neg,insect26_crop.jpg,3,23,TRUE,225,1,2436.2795,58,EAT                                    DON'T EAT,2435.6648,2421.5532,2195.4019,right,1,left,left,eat,eat,approach,neg,approach-neg,1,1,614.7000000001863
sub-058,227,0,FALSE,left,approach,neg,insect6_crop.jpg,3,23,TRUE,226,1,2438.285,58,EAT                                    DON'T EAT,2437.6833,2421.5532,2195.4019,right,1,left,left,eat,eat,approach,neg,approach-neg,1,1,601.6999999997206
sub-058,228,0,TRUE,left,avoid,neg,fungus24_crop.jpg,3,23,TRUE,227,--,NA,58,EAT                                    DON'T EAT,2439.7017,2421.5532,2195.4019,right,2,NA,right,no_response,not_eat,approach,neg,approach-neg,NA,1,NA
sub-058,229,0,FALSE,left,approach,neg,insect22_crop.jpg,3,23,TRUE,228,1,2442.3523,58,EAT                                    DON'T EAT,2441.72,2421.5532,2195.4019,right,1,left,left,eat,eat,approach,neg,approach-neg,1,1,632.2999999998137
sub-058,230,0,FALSE,left,approach,neg,insect38_crop.jpg,3,23,TRUE,229,1,2444.3674,58,EAT                                    DON'T EAT,2443.7378,2421.5532,2195.4019,right,1,left,left,eat,eat,approach,neg,approach-neg,1,1,629.6000000000931
sub-058,231,3,FALSE,left,approach,pos,cake23_crop.jpg,3,24,TRUE,230,1,2462.3877,58,EAT                                    DON'T EAT,2461.603,2457.583,2195.4019,right,1,left,left,eat,eat,approach,pos,approach-pos,1,1,784.7000000001863
sub-058,232,3,FALSE,left,approach,pos,cake6_crop.jpg,3,24,TRUE,231,1,2464.1743,58,EAT                                    DON'T EAT,2463.6213,2457.583,2195.4019,right,1,left,left,eat,eat,approach,pos,approach-pos,1,1,553.0000000004657
sub-058,233,3,FALSE,left,approach,pos,cake32_crop.jpg,3,24,TRUE,232,1,2466.626,58,EAT                                    DON'T EAT,2465.6396,2457.583,2195.4019,right,1,left,left,eat,eat,approach,pos,approach-pos,1,1,986.3999999999069
sub-058,234,3,FALSE,left,approach,pos,cake22_crop.jpg,3,24,TRUE,233,1,2468.251,58,EAT                                    DON'T EAT,2467.6582,2457.583,2195.4019,right,1,left,left,eat,eat,approach,pos,approach-pos,1,1,592.8000000002794
sub-058,235,3,FALSE,left,approach,pos,cake20_crop.jpg,3,24,TRUE,234,1,2470.24,58,EAT                                    DON'T EAT,2469.6765,2457.583,2195.4019,right,1,left,left,eat,eat,approach,pos,approach-pos,1,1,563.5
sub-058,236,3,FALSE,left,approach,pos,cake12_crop.jpg,3,24,TRUE,235,1,2472.278,58,EAT                                    DON'T EAT,2471.6948,2457.583,2195.4019,right,1,left,left,eat,eat,approach,pos,approach-pos,1,1,583.1999999997206
sub-058,237,3,TRUE,left,avoid,neg,fungus25_crop.jpg,3,24,TRUE,236,--,NA,58,EAT                                    DON'T EAT,2473.7131,2457.583,2195.4019,right,2,NA,right,no_response,not_eat,approach,pos,approach-pos,NA,1,NA
sub-058,238,3,FALSE,left,approach,pos,cake7_crop.jpg,3,24,TRUE,237,1,2476.271,58,EAT                                    DON'T EAT,2475.7312,2457.583,2195.4019,right,1,left,left,eat,eat,approach,pos,approach-pos,1,1,539.7999999998137
sub-058,239,3,TRUE,left,avoid,pos,meat23_crop.jpg,3,24,TRUE,238,--,NA,58,EAT                                    DON'T EAT,2477.7498,2457.583,2195.4019,right,2,NA,right,no_response,not_eat,approach,pos,approach-pos,NA,1,NA
sub-058,240,3,FALSE,left,approach,pos,cake15_crop.jpg,3,24,TRUE,239,1,2480.4763,58,EAT                                    DON'T EAT,2479.7678,2457.583,2195.4019,right,1,left,left,eat,eat,approach,pos,approach-pos,1,1,708.4999999995343
sub-058,241,0,FALSE,left,avoid,pos,meat19_crop.jpg,4,25,TRUE,240,--,NA,58,EAT                                    DON'T EAT,2578.3833,2574.3635,2564.218,left,2,NA,right,no_response,not_eat,avoid,pos,avoid-pos,NA,1,NA
sub-058,242,0,FALSE,left,avoid,pos,meat31_crop.jpg,4,25,TRUE,241,--,NA,58,EAT                                    DON'T EAT,2580.4019,2574.3635,2564.218,left,2,NA,right,no_response,not_eat,avoid,pos,avoid-pos,NA,1,NA
sub-058,243,0,FALSE,left,avoid,pos,meat25_crop.jpg,4,25,TRUE,242,--,NA,58,EAT                                    DON'T EAT,2582.4202,2574.3635,2564.218,left,2,NA,right,no_response,not_eat,avoid,pos,avoid-pos,NA,1,NA
sub-058,244,0,FALSE,left,avoid,pos,meat7_crop.jpg,4,25,TRUE,243,--,NA,58,EAT                                    DON'T EAT,2584.4385,2574.3635,2564.218,left,2,NA,right,no_response,not_eat,avoid,pos,avoid-pos,NA,1,NA
sub-058,245,0,FALSE,left,avoid,pos,meat6_crop.jpg,4,25,TRUE,244,--,NA,58,EAT                                    DON'T EAT,2586.4568,2574.3635,2564.218,left,2,NA,right,no_response,not_eat,avoid,pos,avoid-pos,NA,1,NA
sub-058,246,0,FALSE,left,avoid,pos,meat16_crop.jpg,4,25,TRUE,245,--,NA,58,EAT                                    DON'T EAT,2588.4753,2574.3635,2564.218,left,2,NA,right,no_response,not_eat,avoid,pos,avoid-pos,NA,1,NA
sub-058,247,0,FALSE,left,avoid,pos,meat28_crop.jpg,4,25,TRUE,246,--,NA,58,EAT                                    DON'T EAT,2590.4934,2574.3635,2564.218,left,2,NA,right,no_response,not_eat,avoid,pos,avoid-pos,NA,1,NA
sub-058,248,0,TRUE,left,approach,pos,cake11_crop.jpg,4,25,TRUE,247,--,NA,58,EAT                                    DON'T EAT,2592.5117,2574.3635,2564.218,left,2,NA,right,no_response,not_eat,avoid,pos,avoid-pos,NA,0,NA
sub-058,249,0,TRUE,left,approach,neg,insect13_crop.jpg,4,25,TRUE,248,1,2595.1118,58,EAT                                    DON'T EAT,2594.5303,2574.3635,2564.218,left,1,left,left,eat,eat,avoid,pos,avoid-pos,1,1,581.5000000004657
sub-058,250,0,FALSE,left,avoid,pos,meat37_crop.jpg,4,25,TRUE,249,--,NA,58,EAT                                    DON'T EAT,2596.5486,2574.3635,2564.218,left,2,NA,right,no_response,not_eat,avoid,pos,avoid-pos,NA,1,NA
sub-058,251,0,FALSE,left,approach,pos,cake13_crop.jpg,4,26,TRUE,250,1,2614.1848,58,EAT                                    DON'T EAT,2613.4626,2609.4424,2564.218,left,1,left,left,eat,eat,approach,pos,approach-pos,1,1,722.2000000001863
sub-058,252,0,FALSE,left,approach,pos,cake19_crop.jpg,4,26,TRUE,251,1,2616.0503,58,EAT                                    DON'T EAT,2615.481,2609.4424,2564.218,left,1,left,left,eat,eat,approach,pos,approach-pos,1,1,569.2999999998137
sub-058,253,0,FALSE,left,approach,pos,cake37_crop.jpg,4,26,TRUE,252,1,2618.0933,58,EAT                                    DON'T EAT,2617.499,2609.4424,2564.218,left,1,left,left,eat,eat,approach,pos,approach-pos,1,1,594.2999999998137
sub-058,254,0,TRUE,left,avoid,pos,meat11_crop.jpg,4,26,TRUE,253,--,NA,58,EAT                                    DON'T EAT,2619.5176,2609.4424,2564.218,left,2,NA,right,no_response,not_eat,approach,pos,approach-pos,NA,1,NA
sub-058,255,0,TRUE,left,avoid,neg,fungus14_crop.jpg,4,26,TRUE,254,--,NA,58,EAT                                    DON'T EAT,2621.5354,2609.4424,2564.218,left,2,NA,right,no_response,not_eat,approach,pos,approach-pos,NA,1,NA
sub-058,256,0,FALSE,left,approach,pos,cake33_crop.jpg,4,26,TRUE,255,1,2624.3662,58,EAT                                    DON'T EAT,2623.5542,2609.4424,2564.218,left,1,left,left,eat,eat,approach,pos,approach-pos,1,1,811.9999999995343
sub-058,257,0,FALSE,left,approach,pos,cake21_crop.jpg,4,26,TRUE,256,1,2626.312,58,EAT                                    DON'T EAT,2625.572,2609.4424,2564.218,left,1,left,left,eat,eat,approach,pos,approach-pos,1,1,740
sub-058,258,0,FALSE,left,approach,pos,cake25_crop.jpg,4,26,TRUE,257,1,2628.1533,58,EAT                                    DON'T EAT,2627.5908,2609.4424,2564.218,left,1,left,left,eat,eat,approach,pos,approach-pos,1,1,562.5
sub-058,259,0,FALSE,left,approach,pos,cake14_crop.jpg,4,26,TRUE,258,1,2630.2012,58,EAT                                    DON'T EAT,2629.6091,2609.4424,2564.218,left,1,left,left,eat,eat,approach,pos,approach-pos,1,1,592.1000000000931
sub-058,260,0,FALSE,left,approach,pos,cake26_crop.jpg,4,26,TRUE,259,1,2632.1982,58,EAT                                    DON'T EAT,2631.6272,2609.4424,2564.218,left,1,left,left,eat,eat,approach,pos,approach-pos,1,1,571
sub-058,261,1,TRUE,left,approach,neg,insect17_crop.jpg,4,27,TRUE,260,1,2652.3528,58,EAT                                    DON'T EAT,2651.6104,2647.6072,2564.218,left,1,left,left,eat,eat,avoid,pos,avoid-pos,1,1,742.4000000003725
sub-058,262,1,FALSE,left,avoid,pos,meat14_crop.jpg,4,27,TRUE,261,--,NA,58,EAT                                    DON'T EAT,2653.6292,2647.6072,2564.218,left,2,NA,right,no_response,not_eat,avoid,pos,avoid-pos,NA,1,NA
sub-058,263,1,FALSE,left,avoid,pos,meat34_crop.jpg,4,27,TRUE,262,--,NA,58,EAT                                    DON'T EAT,2655.6477,2647.6072,2564.218,left,2,NA,right,no_response,not_eat,avoid,pos,avoid-pos,NA,1,NA
sub-058,264,1,TRUE,left,approach,pos,cake2_crop.jpg,4,27,TRUE,263,1,2658.4285,58,EAT                                    DON'T EAT,2657.666,2647.6072,2564.218,left,1,left,left,eat,eat,avoid,pos,avoid-pos,1,1,762.5
sub-058,265,1,FALSE,left,avoid,pos,meat40_crop.jpg,4,27,TRUE,264,--,NA,58,EAT                                    DON'T EAT,2659.6843,2647.6072,2564.218,left,2,NA,right,no_response,not_eat,avoid,pos,avoid-pos,NA,1,NA
sub-058,266,1,FALSE,left,avoid,pos,meat10_crop.jpg,4,27,TRUE,265,--,NA,58,EAT                                    DON'T EAT,2661.7024,2647.6072,2564.218,left,2,NA,right,no_response,not_eat,avoid,pos,avoid-pos,NA,1,NA
sub-058,267,1,FALSE,left,avoid,pos,meat39_crop.jpg,4,27,TRUE,266,--,NA,58,EAT                                    DON'T EAT,2663.721,2647.6072,2564.218,left,2,NA,right,no_response,not_eat,avoid,pos,avoid-pos,NA,1,NA
sub-058,268,1,FALSE,left,avoid,pos,meat33_crop.jpg,4,27,TRUE,267,--,NA,58,EAT                                    DON'T EAT,2665.739,2647.6072,2564.218,left,2,NA,right,no_response,not_eat,avoid,pos,avoid-pos,NA,1,NA
sub-058,269,1,FALSE,left,avoid,pos,meat24_crop.jpg,4,27,TRUE,268,--,NA,58,EAT                                    DON'T EAT,2667.7578,2647.6072,2564.218,left,2,NA,right,no_response,not_eat,avoid,pos,avoid-pos,NA,1,NA
sub-058,270,1,FALSE,left,avoid,pos,meat9_crop.jpg,4,27,TRUE,269,--,NA,58,EAT                                    DON'T EAT,2669.7756,2647.6072,2564.218,left,2,NA,right,no_response,not_eat,avoid,pos,avoid-pos,NA,1,NA
sub-058,271,0,FALSE,right,avoid,neg,fungus31_crop.jpg,4,28,TRUE,270,--,NA,58,EAT                                    DON'T EAT,2686.5566,2682.5366,2564.218,left,2,NA,right,no_response,not_eat,avoid,neg,avoid-neg,NA,1,NA
sub-058,272,0,FALSE,right,avoid,neg,fungus6_crop.jpg,4,28,TRUE,271,--,NA,58,EAT                                    DON'T EAT,2688.575,2682.5366,2564.218,left,2,NA,right,no_response,not_eat,avoid,neg,avoid-neg,NA,1,NA
sub-058,273,0,FALSE,right,avoid,neg,fungus28_crop.jpg,4,28,TRUE,272,--,NA,58,EAT                                    DON'T EAT,2690.593,2682.5366,2564.218,left,2,NA,right,no_response,not_eat,avoid,neg,avoid-neg,NA,1,NA
sub-058,274,0,FALSE,right,avoid,neg,fungus3_crop.jpg,4,28,TRUE,273,--,NA,58,EAT                                    DON'T EAT,2692.6116,2682.5366,2564.218,left,2,NA,right,no_response,not_eat,avoid,neg,avoid-neg,NA,1,NA
sub-058,275,0,FALSE,right,avoid,neg,fungus1_crop.jpg,4,28,TRUE,274,--,NA,58,EAT                                    DON'T EAT,2694.63,2682.5366,2564.218,left,2,NA,right,no_response,not_eat,avoid,neg,avoid-neg,NA,1,NA
sub-058,276,0,FALSE,right,avoid,neg,fungus23_crop.jpg,4,28,TRUE,275,--,NA,58,EAT                                    DON'T EAT,2696.6482,2682.5366,2564.218,left,2,NA,right,no_response,not_eat,avoid,neg,avoid-neg,NA,1,NA
sub-058,277,0,TRUE,right,approach,neg,insect14_crop.jpg,4,28,TRUE,276,1,2699.3232,58,EAT                                    DON'T EAT,2698.6667,2682.5366,2564.218,left,1,left,left,eat,eat,avoid,neg,avoid-neg,1,1,656.4999999995343
sub-058,278,0,FALSE,right,avoid,neg,fungus32_crop.jpg,4,28,TRUE,277,--,NA,58,EAT                                    DON'T EAT,2700.685,2682.5366,2564.218,left,2,NA,right,no_response,not_eat,avoid,neg,avoid-neg,NA,1,NA
sub-058,279,0,FALSE,right,avoid,neg,fungus19_crop.jpg,4,28,TRUE,278,--,NA,58,EAT                                    DON'T EAT,2702.7036,2682.5366,2564.218,left,2,NA,right,no_response,not_eat,avoid,neg,avoid-neg,NA,1,NA
sub-058,280,0,TRUE,right,approach,pos,cake21_crop.jpg,4,28,TRUE,279,1,2705.451,58,EAT                                    DON'T EAT,2704.7217,2682.5366,2564.218,left,1,left,left,eat,eat,avoid,neg,avoid-neg,1,1,729.2999999998137
sub-058,281,2,FALSE,left,avoid,pos,meat29_crop.jpg,4,29,TRUE,280,--,NA,58,EAT                                    DON'T EAT,2721.7856,2717.7656,2564.218,left,2,NA,right,no_response,not_eat,avoid,pos,avoid-pos,NA,1,NA
sub-058,282,2,FALSE,left,avoid,pos,meat18_crop.jpg,4,29,TRUE,281,--,NA,58,EAT                                    DON'T EAT,2723.8042,2717.7656,2564.218,left,2,NA,right,no_response,not_eat,avoid,pos,avoid-pos,NA,1,NA
sub-058,283,2,FALSE,left,avoid,pos,meat2_crop.jpg,4,29,TRUE,282,--,NA,58,EAT                                    DON'T EAT,2725.8223,2717.7656,2564.218,left,2,NA,right,no_response,not_eat,avoid,pos,avoid-pos,NA,1,NA
sub-058,284,2,TRUE,left,approach,neg,insect24_crop.jpg,4,29,TRUE,283,1,2728.5913,58,EAT                                    DON'T EAT,2727.8408,2717.7656,2564.218,left,1,left,left,eat,eat,avoid,pos,avoid-pos,1,1,750.5
sub-058,285,2,FALSE,left,avoid,pos,meat13_crop.jpg,4,29,TRUE,284,--,NA,58,EAT                                    DON'T EAT,2729.859,2717.7656,2564.218,left,2,NA,right,no_response,not_eat,avoid,pos,avoid-pos,NA,1,NA
sub-058,286,2,FALSE,left,avoid,pos,meat4_crop.jpg,4,29,TRUE,285,--,NA,58,EAT                                    DON'T EAT,2731.8777,2717.7656,2564.218,left,2,NA,right,no_response,not_eat,avoid,pos,avoid-pos,NA,1,NA
sub-058,287,2,FALSE,left,avoid,pos,meat8_crop.jpg,4,29,TRUE,286,--,NA,58,EAT                                    DON'T EAT,2733.896,2717.7656,2564.218,left,2,NA,right,no_response,not_eat,avoid,pos,avoid-pos,NA,1,NA
sub-058,288,2,FALSE,left,avoid,pos,meat15_crop.jpg,4,29,TRUE,287,--,NA,58,EAT                                    DON'T EAT,2735.9143,2717.7656,2564.218,left,2,NA,right,no_response,not_eat,avoid,pos,avoid-pos,NA,1,NA
sub-058,289,2,FALSE,left,avoid,pos,meat20_crop.jpg,4,29,TRUE,288,--,NA,58,EAT                                    DON'T EAT,2737.9326,2717.7656,2564.218,left,2,NA,right,no_response,not_eat,avoid,pos,avoid-pos,NA,1,NA
sub-058,290,2,TRUE,left,approach,pos,cake18_crop.jpg,4,29,TRUE,289,1,2740.778,58,EAT                                    DON'T EAT,2739.951,2717.7656,2564.218,left,1,left,left,eat,eat,avoid,pos,avoid-pos,1,1,827
sub-058,291,1,FALSE,left,avoid,neg,fungus16_crop.jpg,4,30,TRUE,290,--,NA,58,EAT                                    DON'T EAT,2756.131,2752.111,2564.218,left,2,NA,right,no_response,not_eat,avoid,neg,avoid-neg,NA,1,NA
sub-058,292,1,FALSE,left,avoid,neg,fungus35_crop.jpg,4,30,TRUE,291,--,NA,58,EAT                                    DON'T EAT,2758.1497,2752.111,2564.218,left,2,NA,right,no_response,not_eat,avoid,neg,avoid-neg,NA,1,NA
sub-058,293,1,FALSE,left,avoid,neg,fungus4_crop.jpg,4,30,TRUE,292,--,NA,58,EAT                                    DON'T EAT,2760.1677,2752.111,2564.218,left,2,NA,right,no_response,not_eat,avoid,neg,avoid-neg,NA,1,NA
sub-058,294,1,TRUE,left,approach,neg,insect27_crop.jpg,4,30,TRUE,293,1,2762.843,58,EAT                                    DON'T EAT,2762.186,2752.111,2564.218,left,1,left,left,eat,eat,avoid,neg,avoid-neg,1,1,657
sub-058,295,1,FALSE,left,avoid,neg,fungus19_crop.jpg,4,30,TRUE,294,--,NA,58,EAT                                    DON'T EAT,2764.2046,2752.111,2564.218,left,2,NA,right,no_response,not_eat,avoid,neg,avoid-neg,NA,1,NA
sub-058,296,1,FALSE,left,avoid,neg,fungus31_crop.jpg,4,30,TRUE,295,--,NA,58,EAT                                    DON'T EAT,2766.223,2752.111,2564.218,left,2,NA,right,no_response,not_eat,avoid,neg,avoid-neg,NA,1,NA
sub-058,297,1,FALSE,left,avoid,neg,fungus27_crop.jpg,4,30,TRUE,296,--,NA,58,EAT                                    DON'T EAT,2768.2412,2752.111,2564.218,left,2,NA,right,no_response,not_eat,avoid,neg,avoid-neg,NA,1,NA
sub-058,298,1,FALSE,left,avoid,neg,fungus7_crop.jpg,4,30,TRUE,297,--,NA,58,EAT                                    DON'T EAT,2770.2595,2752.111,2564.218,left,2,NA,right,no_response,not_eat,avoid,neg,avoid-neg,NA,1,NA
sub-058,299,1,TRUE,left,approach,pos,cake34_crop.jpg,4,30,TRUE,298,--,NA,58,EAT                                    DON'T EAT,2772.2778,2752.111,2564.218,left,2,NA,right,no_response,not_eat,avoid,neg,avoid-neg,NA,0,NA
sub-058,300,1,FALSE,left,avoid,neg,fungus11_crop.jpg,4,30,TRUE,299,--,NA,58,EAT                                    DON'T EAT,2774.2961,2752.111,2564.218,left,2,NA,right,no_response,not_eat,avoid,neg,avoid-neg,NA,1,NA
sub-058,301,0,FALSE,right,approach,pos,cake4_crop.jpg,4,31,TRUE,300,1,2793.0095,58,EAT                                    DON'T EAT,2791.8442,2787.8242,2564.218,left,1,left,left,eat,eat,approach,pos,approach-pos,1,1,1165.2999999998137
sub-058,302,0,TRUE,right,avoid,neg,fungus15_crop.jpg,4,31,TRUE,301,--,NA,58,EAT                                    DON'T EAT,2793.8625,2787.8242,2564.218,left,2,NA,right,no_response,not_eat,approach,pos,approach-pos,NA,1,NA
sub-058,303,0,FALSE,right,approach,pos,cake27_crop.jpg,4,31,TRUE,302,1,2796.5847,58,EAT                                    DON'T EAT,2795.8809,2787.8242,2564.218,left,1,left,left,eat,eat,approach,pos,approach-pos,1,1,703.7999999998137
sub-058,304,0,FALSE,right,approach,pos,cake26_crop.jpg,4,31,TRUE,303,1,2798.5518,58,EAT                                    DON'T EAT,2797.899,2787.8242,2564.218,left,1,left,left,eat,eat,approach,pos,approach-pos,1,1,652.8000000002794
sub-058,305,0,FALSE,right,approach,pos,cake39_crop.jpg,4,31,TRUE,304,1,2800.5325,58,EAT                                    DON'T EAT,2799.917,2787.8242,2564.218,left,1,left,left,eat,eat,approach,pos,approach-pos,1,1,615.5
sub-058,306,0,FALSE,right,approach,pos,cake38_crop.jpg,4,31,TRUE,305,1,2802.5605,58,EAT                                    DON'T EAT,2801.9353,2787.8242,2564.218,left,1,left,left,eat,eat,approach,pos,approach-pos,1,1,625.1999999997206
sub-058,307,0,TRUE,right,avoid,pos,meat7_crop.jpg,4,31,TRUE,306,--,NA,58,EAT                                    DON'T EAT,2803.9536,2787.8242,2564.218,left,2,NA,right,no_response,not_eat,approach,pos,approach-pos,NA,1,NA
sub-058,308,0,FALSE,right,approach,pos,cake19_crop.jpg,4,31,TRUE,307,1,2806.6084,58,EAT                                    DON'T EAT,2805.972,2787.8242,2564.218,left,1,left,left,eat,eat,approach,pos,approach-pos,1,1,636.3999999999069
sub-058,309,0,FALSE,right,approach,pos,cake10_crop.jpg,4,31,TRUE,308,1,2808.572,58,EAT                                    DON'T EAT,2807.9902,2787.8242,2564.218,left,1,left,left,eat,eat,approach,pos,approach-pos,1,1,581.7999999998137
sub-058,310,0,FALSE,right,approach,pos,cake18_crop.jpg,4,31,TRUE,309,1,2810.6777,58,EAT                                    DON'T EAT,2810.0085,2787.8242,2564.218,left,1,left,left,eat,eat,approach,pos,approach-pos,1,1,669.2000000001863
sub-058,311,3,FALSE,left,avoid,neg,fungus38_crop.jpg,4,32,TRUE,310,--,NA,58,EAT                                    DON'T EAT,2829.8752,2825.8555,2564.218,left,2,NA,right,no_response,not_eat,avoid,neg,avoid-neg,NA,1,NA
sub-058,312,3,FALSE,left,avoid,neg,fungus3_crop.jpg,4,32,TRUE,311,--,NA,58,EAT                                    DON'T EAT,2831.894,2825.8555,2564.218,left,2,NA,right,no_response,not_eat,avoid,neg,avoid-neg,NA,1,NA
sub-058,313,3,TRUE,left,approach,pos,cake31_crop.jpg,4,32,TRUE,312,1,2834.5588,58,EAT                                    DON'T EAT,2833.9124,2825.8555,2564.218,left,1,left,left,eat,eat,avoid,neg,avoid-neg,1,1,646.3999999994412
sub-058,314,3,FALSE,left,avoid,neg,fungus21_crop.jpg,4,32,TRUE,313,--,NA,58,EAT                                    DON'T EAT,2835.9307,2825.8555,2564.218,left,2,NA,right,no_response,not_eat,avoid,neg,avoid-neg,NA,1,NA
sub-058,315,3,FALSE,left,avoid,neg,fungus40_crop.jpg,4,32,TRUE,314,--,NA,58,EAT                                    DON'T EAT,2837.949,2825.8555,2564.218,left,2,NA,right,no_response,not_eat,avoid,neg,avoid-neg,NA,1,NA
sub-058,316,3,TRUE,left,approach,neg,insect3_crop.jpg,4,32,TRUE,315,1,2840.699,58,EAT                                    DON'T EAT,2839.9675,2825.8555,2564.218,left,1,left,left,eat,eat,avoid,neg,avoid-neg,1,1,731.5
sub-058,317,3,FALSE,left,avoid,neg,fungus15_crop.jpg,4,32,TRUE,316,--,NA,58,EAT                                    DON'T EAT,2841.9858,2825.8555,2564.218,left,2,NA,right,no_response,not_eat,avoid,neg,avoid-neg,NA,1,NA
sub-058,318,3,FALSE,left,avoid,neg,fungus18_crop.jpg,4,32,TRUE,317,--,NA,58,EAT                                    DON'T EAT,2844.0042,2825.8555,2564.218,left,2,NA,right,no_response,not_eat,avoid,neg,avoid-neg,NA,1,NA
sub-058,319,3,FALSE,left,avoid,neg,fungus9_crop.jpg,4,32,TRUE,318,--,NA,58,EAT                                    DON'T EAT,2846.0225,2825.8555,2564.218,left,2,NA,right,no_response,not_eat,avoid,neg,avoid-neg,NA,1,NA
sub-058,320,3,FALSE,left,avoid,neg,fungus39_crop.jpg,4,32,TRUE,319,--,NA,58,EAT                                    DON'T EAT,2848.0408,2825.8555,2564.218,left,2,NA,right,no_response,not_eat,avoid,neg,avoid-neg,NA,1,NA
