TrialNumber,n_block,catch,hand,mot,val,stim_name,run_number,num_block,ran,order,response,RT,Subject number,n_b,left_side_resp_label,trial_onset,blk_instr_onset,baseline_onset
1,0,False,left,avoid,pos,meat17_crop.jpg,1,1,1.0,0.0,2,1357.3558,96.0,1.0,EAT                                    DON'T EAT,1355.7003,1351.68,1338.4055
2,0,False,left,avoid,pos,meat11_crop.jpg,1,1,1.0,1.0,2,1358.8153,96.0,1.0,EAT                                    DON'T EAT,1357.7186,1351.68,1338.4055
3,0,False,left,avoid,pos,meat34_crop.jpg,1,1,1.0,2.0,--,--,96.0,1.0,EAT                                    DON'T EAT,1359.7368,1351.68,1338.4055
4,0,True,left,approach,pos,cake19_crop.jpg,1,1,1.0,3.0,1,1362.6748,96.0,1.0,EAT                                    DON'T EAT,1361.7587,1351.68,1338.4055
5,0,True,left,approach,neg,insect35_crop.jpg,1,1,1.0,4.0,1,1364.6626,96.0,1.0,EAT                                    DON'T EAT,1363.7756,1351.68,1338.4055
6,0,False,left,avoid,pos,meat31_crop.jpg,1,1,1.0,5.0,2,1366.5391,96.0,1.0,EAT                                    DON'T EAT,1365.7915,1351.68,1338.4055
7,0,False,left,avoid,pos,meat10_crop.jpg,1,1,1.0,6.0,2,1368.7395,96.0,1.0,EAT                                    DON'T EAT,1367.8103,1351.68,1338.4055
8,0,False,left,avoid,pos,meat40_crop.jpg,1,1,1.0,7.0,2,1370.5356,96.0,1.0,EAT                                    DON'T EAT,1369.8289,1351.68,1338.4055
9,0,False,left,avoid,pos,meat38_crop.jpg,1,1,1.0,8.0,2,1372.6929,96.0,1.0,EAT                                    DON'T EAT,1371.847,1351.68,1338.4055
10,0,False,left,avoid,pos,meat36_crop.jpg,1,1,1.0,9.0,2,1374.6469,96.0,1.0,EAT                                    DON'T EAT,1373.8654,1351.68,1338.4055
11,0,False,right,approach,neg,insect38_crop.jpg,1,2,1.0,10.0,1,1391.1869,96.0,2.0,EAT                                    DON'T EAT,1390.3955,1386.3757,1338.4055
12,0,False,right,approach,neg,insect40_crop.jpg,1,2,1.0,11.0,1,1393.2897,96.0,2.0,EAT                                    DON'T EAT,1392.4141,1386.3757,1338.4055
13,0,False,right,approach,neg,insect14_crop.jpg,1,2,1.0,12.0,1,1395.2036,96.0,2.0,EAT                                    DON'T EAT,1394.4324,1386.3757,1338.4055
14,0,True,right,avoid,neg,fungus29_crop.jpg,1,2,1.0,13.0,--,--,96.0,2.0,EAT                                    DON'T EAT,1396.4507,1386.3757,1338.4055
15,0,False,right,approach,neg,insect32_crop.jpg,1,2,1.0,14.0,2,1398.6285,96.0,2.0,EAT                                    DON'T EAT,1398.4692,1386.3757,1338.4055
16,0,False,right,approach,neg,insect39_crop.jpg,1,2,1.0,15.0,1,1401.4492,96.0,2.0,EAT                                    DON'T EAT,1400.4875,1386.3757,1338.4055
17,0,False,right,approach,neg,insect16_crop.jpg,1,2,1.0,16.0,1,1404.0465,96.0,2.0,EAT                                    DON'T EAT,1402.5057,1386.3757,1338.4055
18,0,False,right,approach,neg,insect10_crop.jpg,1,2,1.0,17.0,1,1405.425,96.0,2.0,EAT                                    DON'T EAT,1404.524,1386.3757,1338.4055
19,0,False,right,approach,neg,insect31_crop.jpg,1,2,1.0,18.0,1,1407.5457,96.0,2.0,EAT                                    DON'T EAT,1406.5425,1386.3757,1338.4055
20,0,True,right,avoid,pos,meat14_crop.jpg,1,2,1.0,19.0,2,1409.5817,96.0,2.0,EAT                                    DON'T EAT,1408.5609,1386.3757,1338.4055
21,2,False,right,avoid,pos,meat36_crop.jpg,1,3,1.0,20.0,2,1427.945,96.0,3.0,EAT                                    DON'T EAT,1427.1428,1423.1229,1338.4055
22,2,False,right,avoid,pos,meat37_crop.jpg,1,3,1.0,21.0,2,1429.912,96.0,3.0,EAT                                    DON'T EAT,1429.161,1423.1229,1338.4055
23,2,False,right,avoid,pos,meat35_crop.jpg,1,3,1.0,22.0,2,1431.9309,96.0,3.0,EAT                                    DON'T EAT,1431.1798,1423.1229,1338.4055
24,2,False,right,avoid,pos,meat17_crop.jpg,1,3,1.0,23.0,2,1433.9465,96.0,3.0,EAT                                    DON'T EAT,1433.1982,1423.1229,1338.4055
25,2,True,right,approach,neg,insect12_crop.jpg,1,3,1.0,24.0,1,1435.9552,96.0,3.0,EAT                                    DON'T EAT,1435.2163,1423.1229,1338.4055
26,2,False,right,avoid,pos,meat21_crop.jpg,1,3,1.0,25.0,2,1437.9542,96.0,3.0,EAT                                    DON'T EAT,1437.2345,1423.1229,1338.4055
27,2,False,right,avoid,pos,meat22_crop.jpg,1,3,1.0,26.0,2,1439.9604,96.0,3.0,EAT                                    DON'T EAT,1439.253,1423.1229,1338.4055
28,2,False,right,avoid,pos,meat26_crop.jpg,1,3,1.0,27.0,2,1441.9479,96.0,3.0,EAT                                    DON'T EAT,1441.2711,1423.1229,1338.4055
29,2,True,right,approach,pos,cake17_crop.jpg,1,3,1.0,28.0,1,1444.0714,96.0,3.0,EAT                                    DON'T EAT,1443.2894,1423.1229,1338.4055
30,2,False,right,avoid,pos,meat34_crop.jpg,1,3,1.0,29.0,2,1447.0472,96.0,3.0,EAT                                    DON'T EAT,1445.3083,1423.1229,1338.4055
31,1,False,left,approach,neg,insect1_crop.jpg,1,4,1.0,30.0,1,1462.2908,96.0,4.0,EAT                                    DON'T EAT,1461.5049,1457.4847,1338.4055
32,1,False,left,approach,neg,insect39_crop.jpg,1,4,1.0,31.0,1,1464.1686,96.0,4.0,EAT                                    DON'T EAT,1463.5232,1457.4847,1338.4055
33,1,False,left,approach,neg,insect23_crop.jpg,1,4,1.0,32.0,1,1466.2054,96.0,4.0,EAT                                    DON'T EAT,1465.5415,1457.4847,1338.4055
34,1,True,left,avoid,pos,meat24_crop.jpg,1,4,1.0,33.0,2,1468.4371,96.0,4.0,EAT                                    DON'T EAT,1467.5597,1457.4847,1338.4055
35,1,False,left,approach,neg,insect11_crop.jpg,1,4,1.0,34.0,1,1470.4015,96.0,4.0,EAT                                    DON'T EAT,1469.5782,1457.4847,1338.4055
36,1,True,left,avoid,neg,fungus24_crop.jpg,1,4,1.0,35.0,2,1472.564,96.0,4.0,EAT                                    DON'T EAT,1471.5968,1457.4847,1338.4055
37,1,False,left,approach,neg,insect16_crop.jpg,1,4,1.0,36.0,1,1474.7062,96.0,4.0,EAT                                    DON'T EAT,1473.6149,1457.4847,1338.4055
38,1,False,left,approach,neg,insect26_crop.jpg,1,4,1.0,37.0,1,1476.624,96.0,4.0,EAT                                    DON'T EAT,1475.6332,1457.4847,1338.4055
39,1,False,left,approach,neg,insect24_crop.jpg,1,4,1.0,38.0,1,1478.4628,96.0,4.0,EAT                                    DON'T EAT,1477.6515,1457.4847,1338.4055
40,1,False,left,approach,neg,insect12_crop.jpg,1,4,1.0,39.0,1,1480.4054,96.0,4.0,EAT                                    DON'T EAT,1479.6697,1457.4847,1338.4055
41,0,False,left,approach,pos,cake4_crop.jpg,1,5,1.0,40.0,1,1498.085,96.0,5.0,EAT                                    DON'T EAT,1497.0177,1492.9979,1338.4055
42,0,True,left,avoid,pos,meat27_crop.jpg,1,5,1.0,41.0,2,1499.8702,96.0,5.0,EAT                                    DON'T EAT,1499.0361,1492.9979,1338.4055
43,0,False,left,approach,pos,cake36_crop.jpg,1,5,1.0,42.0,1,1501.8622,96.0,5.0,EAT                                    DON'T EAT,1501.0546,1492.9979,1338.4055
44,0,False,left,approach,pos,cake12_crop.jpg,1,5,1.0,43.0,1,1504.004,96.0,5.0,EAT                                    DON'T EAT,1503.0728,1492.9979,1338.4055
45,0,False,left,approach,pos,cake3_crop.jpg,1,5,1.0,44.0,1,1505.9064,96.0,5.0,EAT                                    DON'T EAT,1505.091,1492.9979,1338.4055
46,0,False,left,approach,pos,cake9_crop.jpg,1,5,1.0,45.0,1,1507.8268,96.0,5.0,EAT                                    DON'T EAT,1507.1095,1492.9979,1338.4055
47,0,False,left,approach,pos,cake6_crop.jpg,1,5,1.0,46.0,1,1509.834,96.0,5.0,EAT                                    DON'T EAT,1509.1278,1492.9979,1338.4055
48,0,True,left,avoid,neg,fungus10_crop.jpg,1,5,1.0,47.0,2,1512.0906,96.0,5.0,EAT                                    DON'T EAT,1511.146,1492.9979,1338.4055
49,0,False,left,approach,pos,cake35_crop.jpg,1,5,1.0,48.0,1,1513.9795,96.0,5.0,EAT                                    DON'T EAT,1513.1646,1492.9979,1338.4055
50,0,False,left,approach,pos,cake16_crop.jpg,1,5,1.0,49.0,1,1516.0461,96.0,5.0,EAT                                    DON'T EAT,1515.1825,1492.9979,1338.4055
51,2,False,left,avoid,neg,fungus31_crop.jpg,1,6,1.0,50.0,2,1533.2164,96.0,6.0,EAT                                    DON'T EAT,1531.8966,1527.8765,1338.4055
52,2,False,left,avoid,neg,fungus11_crop.jpg,1,6,1.0,51.0,2,1535.005,96.0,6.0,EAT                                    DON'T EAT,1533.915,1527.8765,1338.4055
53,2,False,left,avoid,neg,fungus36_crop.jpg,1,6,1.0,52.0,2,1537.7549,96.0,6.0,EAT                                    DON'T EAT,1535.9333,1527.8765,1338.4055
54,2,True,left,approach,neg,insect29_crop.jpg,1,6,1.0,53.0,1,1538.7537,96.0,6.0,EAT                                    DON'T EAT,1537.9517,1527.8765,1338.4055
55,2,False,left,avoid,neg,fungus8_crop.jpg,1,6,1.0,54.0,2,1540.9211,96.0,6.0,EAT                                    DON'T EAT,1539.9702,1527.8765,1338.4055
56,2,True,left,approach,pos,cake11_crop.jpg,1,6,1.0,55.0,1,1543.0222,96.0,6.0,EAT                                    DON'T EAT,1541.9885,1527.8765,1338.4055
57,2,False,left,avoid,neg,fungus18_crop.jpg,1,6,1.0,56.0,2,1544.8549,96.0,6.0,EAT                                    DON'T EAT,1544.0068,1527.8765,1338.4055
58,2,False,left,avoid,neg,fungus35_crop.jpg,1,6,1.0,57.0,2,1546.9448,96.0,6.0,EAT                                    DON'T EAT,1546.0251,1527.8765,1338.4055
59,2,False,left,avoid,neg,fungus21_crop.jpg,1,6,1.0,58.0,2,1548.9615,96.0,6.0,EAT                                    DON'T EAT,1548.0435,1527.8765,1338.4055
60,2,False,left,avoid,neg,fungus40_crop.jpg,1,6,1.0,59.0,2,1550.9672,96.0,6.0,EAT                                    DON'T EAT,1550.0618,1527.8765,1338.4055
61,3,True,left,approach,neg,insect19_crop.jpg,1,7,1.0,60.0,1,1567.4929,96.0,7.0,EAT                                    DON'T EAT,1566.5421,1562.5221,1338.4055
62,3,False,left,avoid,neg,fungus22_crop.jpg,1,7,1.0,61.0,2,1569.3752,96.0,7.0,EAT                                    DON'T EAT,1568.5605,1562.5221,1338.4055
63,3,False,left,avoid,neg,fungus20_crop.jpg,1,7,1.0,62.0,--,--,96.0,7.0,EAT                                    DON'T EAT,1570.579,1562.5221,1338.4055
64,3,False,left,avoid,neg,fungus37_crop.jpg,1,7,1.0,63.0,2,1572.6086,96.0,7.0,EAT                                    DON'T EAT,1572.597,1562.5221,1338.4055
65,3,True,left,approach,pos,cake29_crop.jpg,1,7,1.0,64.0,1,1575.4602,96.0,7.0,EAT                                    DON'T EAT,1574.6156,1562.5221,1338.4055
66,3,False,left,avoid,neg,fungus5_crop.jpg,1,7,1.0,65.0,2,1577.5929,96.0,7.0,EAT                                    DON'T EAT,1576.6339,1562.5221,1338.4055
67,3,False,left,avoid,neg,fungus4_crop.jpg,1,7,1.0,66.0,2,1579.4427,96.0,7.0,EAT                                    DON'T EAT,1578.6522,1562.5221,1338.4055
68,3,False,left,avoid,neg,fungus34_crop.jpg,1,7,1.0,67.0,2,1581.6528,96.0,7.0,EAT                                    DON'T EAT,1580.6707,1562.5221,1338.4055
69,3,False,left,avoid,neg,fungus16_crop.jpg,1,7,1.0,68.0,2,1583.6709,96.0,7.0,EAT                                    DON'T EAT,1582.689,1562.5221,1338.4055
70,3,False,left,avoid,neg,fungus13_crop.jpg,1,7,1.0,69.0,2,1585.9553,96.0,7.0,EAT                                    DON'T EAT,1584.7074,1562.5221,1338.4055
71,0,False,right,avoid,neg,fungus20_crop.jpg,1,8,1.0,70.0,--,--,96.0,8.0,EAT                                    DON'T EAT,1603.5397,1599.5195,1338.4055
72,0,True,right,approach,neg,insect1_crop.jpg,1,8,1.0,71.0,2,1605.6322,96.0,8.0,EAT                                    DON'T EAT,1605.5576,1599.5195,1338.4055
73,0,False,right,avoid,neg,fungus35_crop.jpg,1,8,1.0,72.0,2,1608.6223,96.0,8.0,EAT                                    DON'T EAT,1607.5763,1599.5195,1338.4055
74,0,False,right,avoid,neg,fungus33_crop.jpg,1,8,1.0,73.0,2,1610.6068,96.0,8.0,EAT                                    DON'T EAT,1609.5946,1599.5195,1338.4055
75,0,False,right,avoid,neg,fungus13_crop.jpg,1,8,1.0,74.0,2,1612.4401,96.0,8.0,EAT                                    DON'T EAT,1611.613,1599.5195,1338.4055
76,0,False,right,avoid,neg,fungus19_crop.jpg,1,8,1.0,75.0,2,1614.4569,96.0,8.0,EAT                                    DON'T EAT,1613.6313,1599.5195,1338.4055
77,0,False,right,avoid,neg,fungus30_crop.jpg,1,8,1.0,76.0,2,1616.5605,96.0,8.0,EAT                                    DON'T EAT,1615.6495,1599.5195,1338.4055
78,0,False,right,avoid,neg,fungus6_crop.jpg,1,8,1.0,77.0,2,1618.7285,96.0,8.0,EAT                                    DON'T EAT,1617.6678,1599.5195,1338.4055
79,0,True,right,approach,pos,cake33_crop.jpg,1,8,1.0,78.0,1,1620.7036,96.0,8.0,EAT                                    DON'T EAT,1619.6865,1599.5195,1338.4055
80,0,False,right,avoid,neg,fungus36_crop.jpg,1,8,1.0,79.0,2,1622.7212,96.0,8.0,EAT                                    DON'T EAT,1621.7047,1599.5195,1338.4055
81,3,True,left,avoid,pos,meat30_crop.jpg,2,9,1.0,80.0,2,1739.3335,96.0,9.0,EAT                                    DON'T EAT,1738.4352,1734.4152,1720.812
82,3,False,left,approach,pos,cake23_crop.jpg,2,9,1.0,81.0,1,1741.373,96.0,9.0,EAT                                    DON'T EAT,1740.453,1734.4152,1720.812
83,3,False,left,approach,pos,cake37_crop.jpg,2,9,1.0,82.0,1,1743.2323,96.0,9.0,EAT                                    DON'T EAT,1742.4719,1734.4152,1720.812
84,3,False,left,approach,pos,cake40_crop.jpg,2,9,1.0,83.0,1,1745.178,96.0,9.0,EAT                                    DON'T EAT,1744.4902,1734.4152,1720.812
85,3,False,left,approach,pos,cake18_crop.jpg,2,9,1.0,84.0,1,1747.2703,96.0,9.0,EAT                                    DON'T EAT,1746.5085,1734.4152,1720.812
86,3,False,left,approach,pos,cake17_crop.jpg,2,9,1.0,85.0,1,1749.2041,96.0,9.0,EAT                                    DON'T EAT,1748.527,1734.4152,1720.812
87,3,False,left,approach,pos,cake38_crop.jpg,2,9,1.0,86.0,1,1751.2843,96.0,9.0,EAT                                    DON'T EAT,1750.545,1734.4152,1720.812
88,3,False,left,approach,pos,cake5_crop.jpg,2,9,1.0,87.0,1,1753.3885,96.0,9.0,EAT                                    DON'T EAT,1752.5635,1734.4152,1720.812
89,3,True,left,avoid,neg,fungus7_crop.jpg,2,9,1.0,88.0,2,1755.4373,96.0,9.0,EAT                                    DON'T EAT,1754.5819,1734.4152,1720.812
90,3,False,left,approach,pos,cake20_crop.jpg,2,9,1.0,89.0,1,1757.4147,96.0,9.0,EAT                                    DON'T EAT,1756.6002,1734.4152,1720.812
91,0,False,right,approach,pos,cake26_crop.jpg,2,10,1.0,90.0,1,1775.3534,96.0,10.0,EAT                                    DON'T EAT,1774.3816,1770.3616,1720.812
92,0,False,right,approach,pos,cake4_crop.jpg,2,10,1.0,91.0,1,1777.0558,96.0,10.0,EAT                                    DON'T EAT,1776.4001,1770.3616,1720.812
93,0,False,right,approach,pos,cake3_crop.jpg,2,10,1.0,92.0,1,1779.0417,96.0,10.0,EAT                                    DON'T EAT,1778.4185,1770.3616,1720.812
94,0,False,right,approach,pos,cake12_crop.jpg,2,10,1.0,93.0,1,1781.0933,96.0,10.0,EAT                                    DON'T EAT,1780.4368,1770.3616,1720.812
95,0,False,right,approach,pos,cake21_crop.jpg,2,10,1.0,94.0,1,1783.2256,96.0,10.0,EAT                                    DON'T EAT,1782.4551,1770.3616,1720.812
96,0,False,right,approach,pos,cake6_crop.jpg,2,10,1.0,95.0,1,1785.1505,96.0,10.0,EAT                                    DON'T EAT,1784.4734,1770.3616,1720.812
97,0,False,right,approach,pos,cake16_crop.jpg,2,10,1.0,96.0,1,1787.1471,96.0,10.0,EAT                                    DON'T EAT,1786.4917,1770.3616,1720.812
98,0,True,right,avoid,pos,meat6_crop.jpg,2,10,1.0,97.0,2,1789.2885,96.0,10.0,EAT                                    DON'T EAT,1788.5101,1770.3616,1720.812
99,0,False,right,approach,pos,cake15_crop.jpg,2,10,1.0,98.0,1,1791.2034,96.0,10.0,EAT                                    DON'T EAT,1790.5286,1770.3616,1720.812
100,0,True,right,avoid,neg,fungus37_crop.jpg,2,10,1.0,99.0,2,1793.4557,96.0,10.0,EAT                                    DON'T EAT,1792.5465,1770.3616,1720.812
101,0,False,left,avoid,neg,fungus2_crop.jpg,2,11,1.0,100.0,2,1809.5952,96.0,11.0,EAT                                    DON'T EAT,1808.6935,1804.6735,1720.812
102,0,False,left,avoid,neg,fungus29_crop.jpg,2,11,1.0,101.0,2,1811.5483,96.0,11.0,EAT                                    DON'T EAT,1810.7118,1804.6735,1720.812
103,0,True,left,approach,neg,insect5_crop.jpg,2,11,1.0,102.0,1,1813.5,96.0,11.0,EAT                                    DON'T EAT,1812.7303,1804.6735,1720.812
104,0,False,left,avoid,neg,fungus19_crop.jpg,2,11,1.0,103.0,2,1815.5614,96.0,11.0,EAT                                    DON'T EAT,1814.7487,1804.6735,1720.812
105,0,False,left,avoid,neg,fungus15_crop.jpg,2,11,1.0,104.0,2,1817.6564,96.0,11.0,EAT                                    DON'T EAT,1816.7668,1804.6735,1720.812
106,0,True,left,approach,pos,cake21_crop.jpg,2,11,1.0,105.0,1,1819.4836,96.0,11.0,EAT                                    DON'T EAT,1818.7853,1804.6735,1720.812
107,0,False,left,avoid,neg,fungus12_crop.jpg,2,11,1.0,106.0,2,1821.5637,96.0,11.0,EAT                                    DON'T EAT,1820.8036,1804.6735,1720.812
108,0,False,left,avoid,neg,fungus14_crop.jpg,2,11,1.0,107.0,2,1823.5828,96.0,11.0,EAT                                    DON'T EAT,1822.8219,1804.6735,1720.812
109,0,False,left,avoid,neg,fungus32_crop.jpg,2,11,1.0,108.0,2,1825.6119,96.0,11.0,EAT                                    DON'T EAT,1824.8403,1804.6735,1720.812
110,0,False,left,avoid,neg,fungus26_crop.jpg,2,11,1.0,109.0,2,1827.5243,96.0,11.0,EAT                                    DON'T EAT,1826.8588,1804.6735,1720.812
111,3,False,left,approach,neg,insect33_crop.jpg,2,12,1.0,110.0,1,1847.537,96.0,12.0,EAT                                    DON'T EAT,1846.7751,1842.7552,1720.812
112,3,False,left,approach,neg,insect34_crop.jpg,2,12,1.0,111.0,1,1849.3854,96.0,12.0,EAT                                    DON'T EAT,1848.7937,1842.7552,1720.812
113,3,False,left,approach,neg,insect31_crop.jpg,2,12,1.0,112.0,1,1851.3705,96.0,12.0,EAT                                    DON'T EAT,1850.8119,1842.7552,1720.812
114,3,False,left,approach,neg,insect37_crop.jpg,2,12,1.0,113.0,1,1853.5365,96.0,12.0,EAT                                    DON'T EAT,1852.8302,1842.7552,1720.812
115,3,False,left,approach,neg,insect9_crop.jpg,2,12,1.0,114.0,1,1855.5786,96.0,12.0,EAT                                    DON'T EAT,1854.8488,1842.7552,1720.812
116,3,True,left,avoid,pos,meat26_crop.jpg,2,12,1.0,115.0,2,1857.6471,96.0,12.0,EAT                                    DON'T EAT,1856.867,1842.7552,1720.812
117,3,False,left,approach,neg,insect36_crop.jpg,2,12,1.0,116.0,1,1859.6664,96.0,12.0,EAT                                    DON'T EAT,1858.8853,1842.7552,1720.812
118,3,False,left,approach,neg,insect32_crop.jpg,2,12,1.0,117.0,1,1861.6532,96.0,12.0,EAT                                    DON'T EAT,1860.9036,1842.7552,1720.812
119,3,False,left,approach,neg,insect3_crop.jpg,2,12,1.0,118.0,1,1863.8285,96.0,12.0,EAT                                    DON'T EAT,1862.9219,1842.7552,1720.812
120,3,True,left,avoid,neg,fungus25_crop.jpg,2,12,1.0,119.0,2,1865.6573,96.0,12.0,EAT                                    DON'T EAT,1864.9403,1842.7552,1720.812
121,1,False,left,avoid,pos,meat23_crop.jpg,2,13,1.0,120.0,2,1883.1493,96.0,13.0,EAT                                    DON'T EAT,1882.2711,1878.251,1720.812
122,1,True,left,approach,pos,cake7_crop.jpg,2,13,1.0,121.0,1,1884.9563,96.0,13.0,EAT                                    DON'T EAT,1884.2897,1878.251,1720.812
123,1,False,left,avoid,pos,meat4_crop.jpg,2,13,1.0,122.0,2,1887.1838,96.0,13.0,EAT                                    DON'T EAT,1886.3082,1878.251,1720.812
124,1,False,left,avoid,pos,meat37_crop.jpg,2,13,1.0,123.0,2,1889.0455,96.0,13.0,EAT                                    DON'T EAT,1888.3264,1878.251,1720.812
125,1,False,left,avoid,pos,meat15_crop.jpg,2,13,1.0,124.0,2,1891.106,96.0,13.0,EAT                                    DON'T EAT,1890.3448,1878.251,1720.812
126,1,True,left,approach,neg,insect40_crop.jpg,2,13,1.0,125.0,1,1893.0707,96.0,13.0,EAT                                    DON'T EAT,1892.3632,1878.251,1720.812
127,1,False,left,avoid,pos,meat5_crop.jpg,2,13,1.0,126.0,2,1895.0797,96.0,13.0,EAT                                    DON'T EAT,1894.3811,1878.251,1720.812
128,1,False,left,avoid,pos,meat3_crop.jpg,2,13,1.0,127.0,2,1897.0557,96.0,13.0,EAT                                    DON'T EAT,1896.3997,1878.251,1720.812
129,1,False,left,avoid,pos,meat13_crop.jpg,2,13,1.0,128.0,2,1899.1357,96.0,13.0,EAT                                    DON'T EAT,1898.4182,1878.251,1720.812
130,1,False,left,avoid,pos,meat20_crop.jpg,2,13,1.0,129.0,2,1901.1766,96.0,13.0,EAT                                    DON'T EAT,1900.4364,1878.251,1720.812
131,1,False,left,approach,pos,cake30_crop.jpg,2,14,1.0,130.0,1,1918.0638,96.0,14.0,EAT                                    DON'T EAT,1917.1165,1913.0968,1720.812
132,1,False,left,approach,pos,cake13_crop.jpg,2,14,1.0,131.0,1,1919.8654,96.0,14.0,EAT                                    DON'T EAT,1919.1351,1913.0968,1720.812
133,1,False,left,approach,pos,cake10_crop.jpg,2,14,1.0,132.0,1,1921.9252,96.0,14.0,EAT                                    DON'T EAT,1921.1538,1913.0968,1720.812
134,1,False,left,approach,pos,cake27_crop.jpg,2,14,1.0,133.0,1,1923.8594,96.0,14.0,EAT                                    DON'T EAT,1923.1719,1913.0968,1720.812
135,1,False,left,approach,pos,cake34_crop.jpg,2,14,1.0,134.0,1,1925.9313,96.0,14.0,EAT                                    DON'T EAT,1925.1904,1913.0968,1720.812
136,1,False,left,approach,pos,cake32_crop.jpg,2,14,1.0,135.0,1,1927.9149,96.0,14.0,EAT                                    DON'T EAT,1927.2087,1913.0968,1720.812
137,1,True,left,avoid,pos,meat18_crop.jpg,2,14,1.0,136.0,2,1930.0836,96.0,14.0,EAT                                    DON'T EAT,1929.2272,1913.0968,1720.812
138,1,False,left,approach,pos,cake1_crop.jpg,2,14,1.0,137.0,1,1931.9647,96.0,14.0,EAT                                    DON'T EAT,1931.2454,1913.0968,1720.812
139,1,True,left,avoid,neg,fungus30_crop.jpg,2,14,1.0,138.0,2,1933.9286,96.0,14.0,EAT                                    DON'T EAT,1933.2639,1913.0968,1720.812
140,1,False,left,approach,pos,cake15_crop.jpg,2,14,1.0,139.0,1,1935.947,96.0,14.0,EAT                                    DON'T EAT,1935.2822,1913.0968,1720.812
141,1,False,right,approach,neg,insect4_crop.jpg,2,15,1.0,140.0,1,1955.2085,96.0,15.0,EAT                                    DON'T EAT,1954.4982,1950.4781,1720.812
142,1,False,right,approach,neg,insect17_crop.jpg,2,15,1.0,141.0,1,1957.1294,96.0,15.0,EAT                                    DON'T EAT,1956.5164,1950.4781,1720.812
143,1,False,right,approach,neg,insect18_crop.jpg,2,15,1.0,142.0,1,1959.0851,96.0,15.0,EAT                                    DON'T EAT,1958.5348,1950.4781,1720.812
144,1,False,right,approach,neg,insect29_crop.jpg,2,15,1.0,143.0,1,1961.2195,96.0,15.0,EAT                                    DON'T EAT,1960.5531,1950.4781,1720.812
145,1,False,right,approach,neg,insect15_crop.jpg,2,15,1.0,144.0,1,1963.2872,96.0,15.0,EAT                                    DON'T EAT,1962.5714,1950.4781,1720.812
146,1,False,right,approach,neg,insect33_crop.jpg,2,15,1.0,145.0,1,1965.2986,96.0,15.0,EAT                                    DON'T EAT,1964.5897,1950.4781,1720.812
147,1,False,right,approach,neg,insect37_crop.jpg,2,15,1.0,146.0,1,1967.4768,96.0,15.0,EAT                                    DON'T EAT,1966.6082,1950.4781,1720.812
148,1,False,right,approach,neg,insect11_crop.jpg,2,15,1.0,147.0,1,1969.4731,96.0,15.0,EAT                                    DON'T EAT,1968.6266,1950.4781,1720.812
149,1,True,right,avoid,neg,fungus14_crop.jpg,2,15,1.0,148.0,2,1971.4373,96.0,15.0,EAT                                    DON'T EAT,1970.6449,1950.4781,1720.812
150,1,True,right,avoid,pos,meat25_crop.jpg,2,15,1.0,149.0,2,1973.4761,96.0,15.0,EAT                                    DON'T EAT,1972.6632,1950.4781,1720.812
151,3,True,right,approach,pos,cake37_crop.jpg,2,16,1.0,150.0,1,1991.7937,96.0,16.0,EAT                                    DON'T EAT,1990.9285,1986.9084,1720.812
152,3,False,right,avoid,pos,meat11_crop.jpg,2,16,1.0,151.0,2,1993.646,96.0,16.0,EAT                                    DON'T EAT,1992.9469,1986.9084,1720.812
153,3,False,right,avoid,pos,meat4_crop.jpg,2,16,1.0,152.0,2,1995.6628,96.0,16.0,EAT                                    DON'T EAT,1994.9651,1986.9084,1720.812
154,3,False,right,avoid,pos,meat33_crop.jpg,2,16,1.0,153.0,2,1997.7028,96.0,16.0,EAT                                    DON'T EAT,1996.9834,1986.9084,1720.812
155,3,True,right,approach,neg,insect25_crop.jpg,2,16,1.0,154.0,1,1999.6901,96.0,16.0,EAT                                    DON'T EAT,1999.0017,1986.9084,1720.812
156,3,False,right,avoid,pos,meat15_crop.jpg,2,16,1.0,155.0,2,2001.6642,96.0,16.0,EAT                                    DON'T EAT,2001.0201,1986.9084,1720.812
157,3,False,right,avoid,pos,meat16_crop.jpg,2,16,1.0,156.0,2,2003.9454,96.0,16.0,EAT                                    DON'T EAT,2003.0386,1986.9084,1720.812
158,3,False,right,avoid,pos,meat18_crop.jpg,2,16,1.0,157.0,2,2005.7996,96.0,16.0,EAT                                    DON'T EAT,2005.0569,1986.9084,1720.812
159,3,False,right,avoid,pos,meat20_crop.jpg,2,16,1.0,158.0,2,2007.9923,96.0,16.0,EAT                                    DON'T EAT,2007.0752,1986.9084,1720.812
160,3,False,right,avoid,pos,meat23_crop.jpg,2,16,1.0,159.0,2,2009.8535,96.0,16.0,EAT                                    DON'T EAT,2009.0935,1986.9084,1720.812
161,2,True,left,avoid,pos,meat14_crop.jpg,3,17,1.0,160.0,2,2102.6484,96.0,17.0,EAT                                    DON'T EAT,2101.5037,2097.4836,2084.6013
162,2,False,left,approach,pos,cake26_crop.jpg,3,17,1.0,161.0,1,2104.1558,96.0,17.0,EAT                                    DON'T EAT,2103.522,2097.4836,2084.6013
163,2,False,left,approach,pos,cake14_crop.jpg,3,17,1.0,162.0,1,2106.2183,96.0,17.0,EAT                                    DON'T EAT,2105.5403,2097.4836,2084.6013
164,2,False,left,approach,pos,cake8_crop.jpg,3,17,1.0,163.0,1,2108.2542,96.0,17.0,EAT                                    DON'T EAT,2107.5588,2097.4836,2084.6013
165,2,True,left,avoid,neg,fungus38_crop.jpg,3,17,1.0,164.0,2,2110.3718,96.0,17.0,EAT                                    DON'T EAT,2109.5771,2097.4836,2084.6013
166,2,False,left,approach,pos,cake2_crop.jpg,3,17,1.0,165.0,1,2112.2305,96.0,17.0,EAT                                    DON'T EAT,2111.5955,2097.4836,2084.6013
167,2,False,left,approach,pos,cake25_crop.jpg,3,17,1.0,166.0,1,2114.3105,96.0,17.0,EAT                                    DON'T EAT,2113.6138,2097.4836,2084.6013
168,2,False,left,approach,pos,cake33_crop.jpg,3,17,1.0,167.0,1,2116.32,96.0,17.0,EAT                                    DON'T EAT,2115.632,2097.4836,2084.6013
169,2,False,left,approach,pos,cake31_crop.jpg,3,17,1.0,168.0,1,2118.296,96.0,17.0,EAT                                    DON'T EAT,2117.6504,2097.4836,2084.6013
170,2,False,left,approach,pos,cake28_crop.jpg,3,17,1.0,169.0,1,2120.3257,96.0,17.0,EAT                                    DON'T EAT,2119.669,2097.4836,2084.6013
171,2,False,right,approach,neg,insect8_crop.jpg,3,18,1.0,170.0,1,2139.6174,96.0,18.0,EAT                                    DON'T EAT,2138.668,2134.648,2084.6013
172,2,False,right,approach,neg,insect6_crop.jpg,3,18,1.0,171.0,1,2141.3718,96.0,18.0,EAT                                    DON'T EAT,2140.6863,2134.648,2084.6013
173,2,False,right,approach,neg,insect27_crop.jpg,3,18,1.0,172.0,1,2143.3396,96.0,18.0,EAT                                    DON'T EAT,2142.7046,2134.648,2084.6013
174,2,False,right,approach,neg,insect23_crop.jpg,3,18,1.0,173.0,1,2145.4314,96.0,18.0,EAT                                    DON'T EAT,2144.723,2134.648,2084.6013
175,2,False,right,approach,neg,insect35_crop.jpg,3,18,1.0,174.0,1,2147.4495,96.0,18.0,EAT                                    DON'T EAT,2146.7412,2134.648,2084.6013
176,2,False,right,approach,neg,insect22_crop.jpg,3,18,1.0,175.0,1,2149.4993,96.0,18.0,EAT                                    DON'T EAT,2148.7595,2134.648,2084.6013
177,2,False,right,approach,neg,insect13_crop.jpg,3,18,1.0,176.0,1,2151.4749,96.0,18.0,EAT                                    DON'T EAT,2150.778,2134.648,2084.6013
178,2,False,right,approach,neg,insect2_crop.jpg,3,18,1.0,177.0,1,2153.5906,96.0,18.0,EAT                                    DON'T EAT,2152.7964,2134.648,2084.6013
179,2,True,right,avoid,neg,fungus3_crop.jpg,3,18,1.0,178.0,2,2155.6187,96.0,18.0,EAT                                    DON'T EAT,2154.8147,2134.648,2084.6013
180,2,True,right,avoid,pos,meat7_crop.jpg,3,18,1.0,179.0,2,2157.6252,96.0,18.0,EAT                                    DON'T EAT,2156.833,2134.648,2084.6013
181,2,True,left,approach,pos,cake24_crop.jpg,3,19,1.0,180.0,1,2174.9133,96.0,19.0,EAT                                    DON'T EAT,2174.064,2170.044,2084.6013
182,2,False,left,avoid,pos,meat22_crop.jpg,3,19,1.0,181.0,2,2176.8206,96.0,19.0,EAT                                    DON'T EAT,2176.0823,2170.044,2084.6013
183,2,False,left,avoid,pos,meat2_crop.jpg,3,19,1.0,182.0,2,2178.7986,96.0,19.0,EAT                                    DON'T EAT,2178.1006,2170.044,2084.6013
184,2,False,left,avoid,pos,meat12_crop.jpg,3,19,1.0,183.0,2,2180.7515,96.0,19.0,EAT                                    DON'T EAT,2180.1191,2170.044,2084.6013
185,2,True,left,approach,neg,insect18_crop.jpg,3,19,1.0,184.0,1,2182.8801,96.0,19.0,EAT                                    DON'T EAT,2182.1375,2170.044,2084.6013
186,2,False,left,avoid,pos,meat16_crop.jpg,3,19,1.0,185.0,2,2184.9272,96.0,19.0,EAT                                    DON'T EAT,2184.1558,2170.044,2084.6013
187,2,False,left,avoid,pos,meat6_crop.jpg,3,19,1.0,186.0,2,2186.8818,96.0,19.0,EAT                                    DON'T EAT,2186.174,2170.044,2084.6013
188,2,False,left,avoid,pos,meat32_crop.jpg,3,19,1.0,187.0,2,2188.7927,96.0,19.0,EAT                                    DON'T EAT,2188.1924,2170.044,2084.6013
189,2,False,left,avoid,pos,meat35_crop.jpg,3,19,1.0,188.0,2,2190.919,96.0,19.0,EAT                                    DON'T EAT,2190.211,2170.044,2084.6013
190,2,False,left,avoid,pos,meat28_crop.jpg,3,19,1.0,189.0,2,2193.034,96.0,19.0,EAT                                    DON'T EAT,2192.2288,2170.044,2084.6013
191,2,False,left,approach,neg,insect14_crop.jpg,3,20,1.0,190.0,1,2212.92,96.0,20.0,EAT                                    DON'T EAT,2211.9956,2207.9756,2084.6013
192,2,False,left,approach,neg,insect30_crop.jpg,3,20,1.0,191.0,1,2214.6665,96.0,20.0,EAT                                    DON'T EAT,2214.014,2207.9756,2084.6013
193,2,False,left,approach,neg,insect6_crop.jpg,3,20,1.0,192.0,1,2216.6965,96.0,20.0,EAT                                    DON'T EAT,2216.0322,2207.9756,2084.6013
194,2,False,left,approach,neg,insect17_crop.jpg,3,20,1.0,193.0,1,2218.6848,96.0,20.0,EAT                                    DON'T EAT,2218.0505,2207.9756,2084.6013
195,2,False,left,approach,neg,insect38_crop.jpg,3,20,1.0,194.0,1,2220.6714,96.0,20.0,EAT                                    DON'T EAT,2220.069,2207.9756,2084.6013
196,2,True,left,avoid,pos,meat19_crop.jpg,3,20,1.0,195.0,2,2222.8496,96.0,20.0,EAT                                    DON'T EAT,2222.0874,2207.9756,2084.6013
197,2,False,left,approach,neg,insect8_crop.jpg,3,20,1.0,196.0,1,2224.8438,96.0,20.0,EAT                                    DON'T EAT,2224.105,2207.9756,2084.6013
198,2,False,left,approach,neg,insect22_crop.jpg,3,20,1.0,197.0,1,2226.8513,96.0,20.0,EAT                                    DON'T EAT,2226.124,2207.9756,2084.6013
199,2,False,left,approach,neg,insect7_crop.jpg,3,20,1.0,198.0,1,2228.7437,96.0,20.0,EAT                                    DON'T EAT,2228.1423,2207.9756,2084.6013
200,2,True,left,avoid,neg,fungus39_crop.jpg,3,20,1.0,199.0,2,2231.2166,96.0,20.0,EAT                                    DON'T EAT,2230.1606,2207.9756,2084.6013
201,1,True,right,approach,neg,insect7_crop.jpg,3,21,1.0,200.0,1,2248.6904,96.0,21.0,EAT                                    DON'T EAT,2247.9587,2243.9387,2084.6013
202,1,True,right,approach,pos,cake2_crop.jpg,3,21,1.0,201.0,1,2250.6526,96.0,21.0,EAT                                    DON'T EAT,2249.977,2243.9387,2084.6013
203,1,False,right,avoid,pos,meat28_crop.jpg,3,21,1.0,202.0,2,2252.7566,96.0,21.0,EAT                                    DON'T EAT,2251.9954,2243.9387,2084.6013
204,1,False,right,avoid,pos,meat32_crop.jpg,3,21,1.0,203.0,2,2254.7004,96.0,21.0,EAT                                    DON'T EAT,2254.014,2243.9387,2084.6013
205,1,False,right,avoid,pos,meat27_crop.jpg,3,21,1.0,204.0,2,2256.73,96.0,21.0,EAT                                    DON'T EAT,2256.0322,2243.9387,2084.6013
206,1,False,right,avoid,pos,meat30_crop.jpg,3,21,1.0,205.0,2,2258.757,96.0,21.0,EAT                                    DON'T EAT,2258.0505,2243.9387,2084.6013
207,1,False,right,avoid,pos,meat19_crop.jpg,3,21,1.0,206.0,2,2260.8909,96.0,21.0,EAT                                    DON'T EAT,2260.0688,2243.9387,2084.6013
208,1,False,right,avoid,pos,meat31_crop.jpg,3,21,1.0,207.0,2,2262.787,96.0,21.0,EAT                                    DON'T EAT,2262.0872,2243.9387,2084.6013
209,1,False,right,avoid,pos,meat12_crop.jpg,3,21,1.0,208.0,2,2264.9395,96.0,21.0,EAT                                    DON'T EAT,2264.1055,2243.9387,2084.6013
210,1,False,right,avoid,pos,meat8_crop.jpg,3,21,1.0,209.0,2,2266.7815,96.0,21.0,EAT                                    DON'T EAT,2266.1238,2243.9387,2084.6013
211,0,False,left,approach,neg,insect4_crop.jpg,3,22,1.0,210.0,1,2284.4226,96.0,22.0,EAT                                    DON'T EAT,2283.705,2279.6848,2084.6013
212,0,False,left,approach,neg,insect20_crop.jpg,3,22,1.0,211.0,1,2286.4124,96.0,22.0,EAT                                    DON'T EAT,2285.7234,2279.6848,2084.6013
213,0,True,left,avoid,pos,meat21_crop.jpg,3,22,1.0,212.0,2,2288.4238,96.0,22.0,EAT                                    DON'T EAT,2287.7412,2279.6848,2084.6013
214,0,False,left,approach,neg,insect21_crop.jpg,3,22,1.0,213.0,1,2290.373,96.0,22.0,EAT                                    DON'T EAT,2289.76,2279.6848,2084.6013
215,0,True,left,avoid,neg,fungus9_crop.jpg,3,22,1.0,214.0,2,2292.5525,96.0,22.0,EAT                                    DON'T EAT,2291.7786,2279.6848,2084.6013
216,0,False,left,approach,neg,insect25_crop.jpg,3,22,1.0,215.0,1,2294.4946,96.0,22.0,EAT                                    DON'T EAT,2293.7969,2279.6848,2084.6013
217,0,False,left,approach,neg,insect27_crop.jpg,3,22,1.0,216.0,1,2296.4941,96.0,22.0,EAT                                    DON'T EAT,2295.8152,2279.6848,2084.6013
218,0,False,left,approach,neg,insect10_crop.jpg,3,22,1.0,217.0,1,2298.4995,96.0,22.0,EAT                                    DON'T EAT,2297.8335,2279.6848,2084.6013
219,0,False,left,approach,neg,insect28_crop.jpg,3,22,1.0,218.0,1,2300.4521,96.0,22.0,EAT                                    DON'T EAT,2299.852,2279.6848,2084.6013
220,0,False,left,approach,neg,insect2_crop.jpg,3,22,1.0,219.0,1,2302.495,96.0,22.0,EAT                                    DON'T EAT,2301.8704,2279.6848,2084.6013
221,0,False,right,avoid,pos,meat10_crop.jpg,3,23,1.0,220.0,2,2321.017,96.0,23.0,EAT                                    DON'T EAT,2320.2021,2316.182,2084.6013
222,0,True,right,approach,pos,cake39_crop.jpg,3,23,1.0,221.0,1,2323.0566,96.0,23.0,EAT                                    DON'T EAT,2322.2205,2316.182,2084.6013
223,0,False,right,avoid,pos,meat38_crop.jpg,3,23,1.0,222.0,2,2324.9993,96.0,23.0,EAT                                    DON'T EAT,2324.239,2316.182,2084.6013
224,0,False,right,avoid,pos,meat39_crop.jpg,3,23,1.0,223.0,2,2326.9534,96.0,23.0,EAT                                    DON'T EAT,2326.2573,2316.182,2084.6013
225,0,False,right,avoid,pos,meat9_crop.jpg,3,23,1.0,224.0,2,2329.1108,96.0,23.0,EAT                                    DON'T EAT,2328.2754,2316.182,2084.6013
226,0,False,right,avoid,pos,meat29_crop.jpg,3,23,1.0,225.0,2,2330.9512,96.0,23.0,EAT                                    DON'T EAT,2330.294,2316.182,2084.6013
227,0,True,right,approach,neg,insect24_crop.jpg,3,23,1.0,226.0,1,2333.0015,96.0,23.0,EAT                                    DON'T EAT,2332.3123,2316.182,2084.6013
228,0,False,right,avoid,pos,meat5_crop.jpg,3,23,1.0,227.0,2,2335.1057,96.0,23.0,EAT                                    DON'T EAT,2334.3306,2316.182,2084.6013
229,0,False,right,avoid,pos,meat3_crop.jpg,3,23,1.0,228.0,2,2337.056,96.0,23.0,EAT                                    DON'T EAT,2336.349,2316.182,2084.6013
230,0,False,right,avoid,pos,meat13_crop.jpg,3,23,1.0,229.0,2,2339.131,96.0,23.0,EAT                                    DON'T EAT,2338.3672,2316.182,2084.6013
231,1,True,right,approach,pos,cake22_crop.jpg,3,24,1.0,230.0,1,2357.193,96.0,24.0,EAT                                    DON'T EAT,2356.4324,2352.4124,2084.6013
232,1,False,right,avoid,neg,fungus22_crop.jpg,3,24,1.0,231.0,2,2359.1812,96.0,24.0,EAT                                    DON'T EAT,2358.4507,2352.4124,2084.6013
233,1,False,right,avoid,neg,fungus31_crop.jpg,3,24,1.0,232.0,2,2361.186,96.0,24.0,EAT                                    DON'T EAT,2360.469,2352.4124,2084.6013
234,1,False,right,avoid,neg,fungus9_crop.jpg,3,24,1.0,233.0,2,2363.1748,96.0,24.0,EAT                                    DON'T EAT,2362.4873,2352.4124,2084.6013
235,1,False,right,avoid,neg,fungus21_crop.jpg,3,24,1.0,234.0,2,2365.1738,96.0,24.0,EAT                                    DON'T EAT,2364.5056,2352.4124,2084.6013
236,1,False,right,avoid,neg,fungus11_crop.jpg,3,24,1.0,235.0,2,2367.1997,96.0,24.0,EAT                                    DON'T EAT,2366.5242,2352.4124,2084.6013
237,1,False,right,avoid,neg,fungus18_crop.jpg,3,24,1.0,236.0,2,2369.1536,96.0,24.0,EAT                                    DON'T EAT,2368.5425,2352.4124,2084.6013
238,1,False,right,avoid,neg,fungus25_crop.jpg,3,24,1.0,237.0,2,2371.3208,96.0,24.0,EAT                                    DON'T EAT,2370.5608,2352.4124,2084.6013
239,1,False,right,avoid,neg,fungus7_crop.jpg,3,24,1.0,238.0,2,2373.4165,96.0,24.0,EAT                                    DON'T EAT,2372.579,2352.4124,2084.6013
240,1,True,right,approach,neg,insect21_crop.jpg,3,24,1.0,239.0,1,2375.3694,96.0,24.0,EAT                                    DON'T EAT,2374.5974,2352.4124,2084.6013
241,2,True,right,avoid,pos,meat40_crop.jpg,4,25,1.0,240.0,2,2473.4272,96.0,25.0,EAT                                    DON'T EAT,2472.4956,2468.4753,2455.2388
242,2,False,right,approach,pos,cake32_crop.jpg,4,25,1.0,241.0,1,2475.3176,96.0,25.0,EAT                                    DON'T EAT,2474.514,2468.4753,2455.2388
243,2,False,right,approach,pos,cake23_crop.jpg,4,25,1.0,242.0,1,2477.2402,96.0,25.0,EAT                                    DON'T EAT,2476.5322,2468.4753,2455.2388
244,2,False,right,approach,pos,cake7_crop.jpg,4,25,1.0,243.0,1,2479.2612,96.0,25.0,EAT                                    DON'T EAT,2478.5503,2468.4753,2455.2388
245,2,False,right,approach,pos,cake11_crop.jpg,4,25,1.0,244.0,1,2481.27,96.0,25.0,EAT                                    DON'T EAT,2480.5688,2468.4753,2455.2388
246,2,False,right,approach,pos,cake28_crop.jpg,4,25,1.0,245.0,1,2483.2869,96.0,25.0,EAT                                    DON'T EAT,2482.5872,2468.4753,2455.2388
247,2,False,right,approach,pos,cake9_crop.jpg,4,25,1.0,246.0,1,2485.354,96.0,25.0,EAT                                    DON'T EAT,2484.6055,2468.4753,2455.2388
248,2,False,right,approach,pos,cake27_crop.jpg,4,25,1.0,247.0,1,2487.385,96.0,25.0,EAT                                    DON'T EAT,2486.6238,2468.4753,2455.2388
249,2,True,right,avoid,neg,fungus5_crop.jpg,4,25,1.0,248.0,2,2489.3833,96.0,25.0,EAT                                    DON'T EAT,2488.642,2468.4753,2455.2388
250,2,False,right,approach,pos,cake40_crop.jpg,4,25,1.0,249.0,1,2491.3494,96.0,25.0,EAT                                    DON'T EAT,2490.6606,2468.4753,2455.2388
251,3,False,left,avoid,pos,meat1_crop.jpg,4,26,1.0,250.0,2,2511.5935,96.0,26.0,EAT                                    DON'T EAT,2510.5767,2506.557,2455.2388
252,3,False,left,avoid,pos,meat7_crop.jpg,4,26,1.0,251.0,2,2513.2385,96.0,26.0,EAT                                    DON'T EAT,2512.5955,2506.557,2455.2388
253,3,True,left,approach,neg,insect15_crop.jpg,4,26,1.0,252.0,1,2515.27,96.0,26.0,EAT                                    DON'T EAT,2514.614,2506.557,2455.2388
254,3,True,left,approach,pos,cake39_crop.jpg,4,26,1.0,253.0,1,2517.3372,96.0,26.0,EAT                                    DON'T EAT,2516.632,2506.557,2455.2388
255,3,False,left,avoid,pos,meat39_crop.jpg,4,26,1.0,254.0,2,2519.4731,96.0,26.0,EAT                                    DON'T EAT,2518.6501,2506.557,2455.2388
256,3,False,left,avoid,pos,meat9_crop.jpg,4,26,1.0,255.0,2,2521.472,96.0,26.0,EAT                                    DON'T EAT,2520.669,2506.557,2455.2388
257,3,False,left,avoid,pos,meat25_crop.jpg,4,26,1.0,256.0,2,2523.3696,96.0,26.0,EAT                                    DON'T EAT,2522.6868,2506.557,2455.2388
258,3,False,left,avoid,pos,meat29_crop.jpg,4,26,1.0,257.0,2,2525.3623,96.0,26.0,EAT                                    DON'T EAT,2524.7053,2506.557,2455.2388
259,3,False,left,avoid,pos,meat8_crop.jpg,4,26,1.0,258.0,2,2527.3418,96.0,26.0,EAT                                    DON'T EAT,2526.7234,2506.557,2455.2388
260,3,False,left,avoid,pos,meat33_crop.jpg,4,26,1.0,259.0,2,2529.3865,96.0,26.0,EAT                                    DON'T EAT,2528.7422,2506.557,2455.2388
261,3,False,right,avoid,neg,fungus4_crop.jpg,4,27,1.0,260.0,2,2546.1147,96.0,27.0,EAT                                    DON'T EAT,2545.2393,2541.2192,2455.2388
262,3,False,right,avoid,neg,fungus12_crop.jpg,4,27,1.0,261.0,2,2548.2168,96.0,27.0,EAT                                    DON'T EAT,2547.2576,2541.2192,2455.2388
263,3,True,right,approach,pos,cake13_crop.jpg,4,27,1.0,262.0,1,2550.0085,96.0,27.0,EAT                                    DON'T EAT,2549.2761,2541.2192,2455.2388
264,3,False,right,avoid,neg,fungus28_crop.jpg,4,27,1.0,263.0,2,2552.0864,96.0,27.0,EAT                                    DON'T EAT,2551.2944,2541.2192,2455.2388
265,3,False,right,avoid,neg,fungus38_crop.jpg,4,27,1.0,264.0,2,2553.9446,96.0,27.0,EAT                                    DON'T EAT,2553.3125,2541.2192,2455.2388
266,3,False,right,avoid,neg,fungus23_crop.jpg,4,27,1.0,265.0,2,2556.131,96.0,27.0,EAT                                    DON'T EAT,2555.3308,2541.2192,2455.2388
267,3,True,right,approach,neg,insect26_crop.jpg,4,27,1.0,266.0,1,2558.0066,96.0,27.0,EAT                                    DON'T EAT,2557.3496,2541.2192,2455.2388
268,3,False,right,avoid,neg,fungus8_crop.jpg,4,27,1.0,267.0,2,2560.022,96.0,27.0,EAT                                    DON'T EAT,2559.3677,2541.2192,2455.2388
269,3,False,right,avoid,neg,fungus17_crop.jpg,4,27,1.0,268.0,2,2562.0732,96.0,27.0,EAT                                    DON'T EAT,2561.386,2541.2192,2455.2388
270,3,False,right,avoid,neg,fungus24_crop.jpg,4,27,1.0,269.0,2,2564.0679,96.0,27.0,EAT                                    DON'T EAT,2563.4043,2541.2192,2455.2388
271,1,True,left,approach,neg,insect13_crop.jpg,4,28,1.0,270.0,1,2582.583,96.0,28.0,EAT                                    DON'T EAT,2581.703,2577.6829,2455.2388
272,1,False,left,avoid,neg,fungus23_crop.jpg,4,28,1.0,271.0,2,2584.4094,96.0,28.0,EAT                                    DON'T EAT,2583.721,2577.6829,2455.2388
273,1,True,left,approach,pos,cake22_crop.jpg,4,28,1.0,272.0,1,2586.4263,96.0,28.0,EAT                                    DON'T EAT,2585.7397,2577.6829,2455.2388
274,1,False,left,avoid,neg,fungus6_crop.jpg,4,28,1.0,273.0,2,2588.5703,96.0,28.0,EAT                                    DON'T EAT,2587.758,2577.6829,2455.2388
275,1,False,left,avoid,neg,fungus27_crop.jpg,4,28,1.0,274.0,2,2590.5144,96.0,28.0,EAT                                    DON'T EAT,2589.7764,2577.6829,2455.2388
276,1,False,left,avoid,neg,fungus3_crop.jpg,4,28,1.0,275.0,2,2592.5232,96.0,28.0,EAT                                    DON'T EAT,2591.7947,2577.6829,2455.2388
277,1,False,left,avoid,neg,fungus28_crop.jpg,4,28,1.0,276.0,2,2594.4573,96.0,28.0,EAT                                    DON'T EAT,2593.813,2577.6829,2455.2388
278,1,False,left,avoid,neg,fungus33_crop.jpg,4,28,1.0,277.0,2,2596.6423,96.0,28.0,EAT                                    DON'T EAT,2595.831,2577.6829,2455.2388
279,1,False,left,avoid,neg,fungus1_crop.jpg,4,28,1.0,278.0,2,2598.7034,96.0,28.0,EAT                                    DON'T EAT,2597.8496,2577.6829,2455.2388
280,1,False,left,avoid,neg,fungus17_crop.jpg,4,28,1.0,279.0,2,2600.6401,96.0,28.0,EAT                                    DON'T EAT,2599.8682,2577.6829,2455.2388
281,3,False,right,approach,neg,insect36_crop.jpg,4,29,1.0,280.0,1,2617.4456,96.0,29.0,EAT                                    DON'T EAT,2616.6653,2612.6448,2455.2388
282,3,False,right,approach,neg,insect34_crop.jpg,4,29,1.0,281.0,1,2619.424,96.0,29.0,EAT                                    DON'T EAT,2618.6836,2612.6448,2455.2388
283,3,False,right,approach,neg,insect19_crop.jpg,4,29,1.0,282.0,1,2621.3994,96.0,29.0,EAT                                    DON'T EAT,2620.702,2612.6448,2455.2388
284,3,False,right,approach,neg,insect3_crop.jpg,4,29,1.0,283.0,1,2623.5332,96.0,29.0,EAT                                    DON'T EAT,2622.7202,2612.6448,2455.2388
285,3,False,right,approach,neg,insect30_crop.jpg,4,29,1.0,284.0,1,2625.5923,96.0,29.0,EAT                                    DON'T EAT,2624.7388,2612.6448,2455.2388
286,3,False,right,approach,neg,insect28_crop.jpg,4,29,1.0,285.0,1,2627.7295,96.0,29.0,EAT                                    DON'T EAT,2626.757,2612.6448,2455.2388
287,3,False,right,approach,neg,insect5_crop.jpg,4,29,1.0,286.0,1,2629.6646,96.0,29.0,EAT                                    DON'T EAT,2628.7754,2612.6448,2455.2388
288,3,True,right,avoid,neg,fungus32_crop.jpg,4,29,1.0,287.0,2,2631.441,96.0,29.0,EAT                                    DON'T EAT,2630.794,2612.6448,2455.2388
289,3,False,right,approach,neg,insect9_crop.jpg,4,29,1.0,288.0,1,2633.5066,96.0,29.0,EAT                                    DON'T EAT,2632.812,2612.6448,2455.2388
290,3,True,right,avoid,pos,meat1_crop.jpg,4,29,1.0,289.0,2,2635.5713,96.0,29.0,EAT                                    DON'T EAT,2634.8303,2612.6448,2455.2388
291,2,False,right,avoid,neg,fungus2_crop.jpg,4,30,1.0,290.0,2,2653.3042,96.0,30.0,EAT                                    DON'T EAT,2652.4785,2648.4583,2455.2388
292,2,False,right,avoid,neg,fungus1_crop.jpg,4,30,1.0,291.0,2,2655.0486,96.0,30.0,EAT                                    DON'T EAT,2654.4968,2648.4583,2455.2388
293,2,False,right,avoid,neg,fungus34_crop.jpg,4,30,1.0,292.0,2,2657.246,96.0,30.0,EAT                                    DON'T EAT,2656.5151,2648.4583,2455.2388
294,2,False,right,avoid,neg,fungus16_crop.jpg,4,30,1.0,293.0,2,2659.2102,96.0,30.0,EAT                                    DON'T EAT,2658.5334,2648.4583,2455.2388
295,2,False,right,avoid,neg,fungus40_crop.jpg,4,30,1.0,294.0,2,2661.3975,96.0,30.0,EAT                                    DON'T EAT,2660.5518,2648.4583,2455.2388
296,2,True,right,approach,neg,insect20_crop.jpg,4,30,1.0,295.0,1,2663.2913,96.0,30.0,EAT                                    DON'T EAT,2662.5703,2648.4583,2455.2388
297,2,False,right,avoid,neg,fungus39_crop.jpg,4,30,1.0,296.0,2,2665.2725,96.0,30.0,EAT                                    DON'T EAT,2664.5886,2648.4583,2455.2388
298,2,False,right,avoid,neg,fungus27_crop.jpg,4,30,1.0,297.0,2,2667.3464,96.0,30.0,EAT                                    DON'T EAT,2666.607,2648.4583,2455.2388
299,2,False,right,avoid,neg,fungus26_crop.jpg,4,30,1.0,298.0,2,2669.279,96.0,30.0,EAT                                    DON'T EAT,2668.6252,2648.4583,2455.2388
300,2,True,right,approach,pos,cake20_crop.jpg,4,30,1.0,299.0,1,2671.457,96.0,30.0,EAT                                    DON'T EAT,2670.6436,2648.4583,2455.2388
301,1,False,right,approach,pos,cake35_crop.jpg,4,31,1.0,300.0,1,2690.7158,96.0,31.0,EAT                                    DON'T EAT,2690.0596,2686.0396,2455.2388
302,1,False,right,approach,pos,cake10_crop.jpg,4,31,1.0,301.0,1,2692.724,96.0,31.0,EAT                                    DON'T EAT,2692.0781,2686.0396,2455.2388
303,1,False,right,approach,pos,cake5_crop.jpg,4,31,1.0,302.0,1,2694.7305,96.0,31.0,EAT                                    DON'T EAT,2694.0964,2686.0396,2455.2388
304,1,False,right,approach,pos,cake24_crop.jpg,4,31,1.0,303.0,1,2696.7717,96.0,31.0,EAT                                    DON'T EAT,2696.1147,2686.0396,2455.2388
305,1,False,right,approach,pos,cake30_crop.jpg,4,31,1.0,304.0,1,2698.8298,96.0,31.0,EAT                                    DON'T EAT,2698.133,2686.0396,2455.2388
306,1,False,right,approach,pos,cake1_crop.jpg,4,31,1.0,305.0,1,2700.7954,96.0,31.0,EAT                                    DON'T EAT,2700.1516,2686.0396,2455.2388
307,1,False,right,approach,pos,cake36_crop.jpg,4,31,1.0,306.0,1,2702.7732,96.0,31.0,EAT                                    DON'T EAT,2702.1697,2686.0396,2455.2388
308,1,True,right,avoid,neg,fungus10_crop.jpg,4,31,1.0,307.0,2,2704.8652,96.0,31.0,EAT                                    DON'T EAT,2704.1882,2686.0396,2455.2388
309,1,True,right,avoid,pos,meat24_crop.jpg,4,31,1.0,308.0,2,2706.8813,96.0,31.0,EAT                                    DON'T EAT,2706.2065,2686.0396,2455.2388
310,1,False,right,approach,pos,cake14_crop.jpg,4,31,1.0,309.0,1,2708.8857,96.0,31.0,EAT                                    DON'T EAT,2708.2244,2686.0396,2455.2388
311,3,True,right,avoid,pos,meat2_crop.jpg,4,32,1.0,310.0,2,2725.9163,96.0,32.0,EAT                                    DON'T EAT,2725.189,2721.169,2455.2388
312,3,False,right,approach,pos,cake19_crop.jpg,4,32,1.0,311.0,1,2727.8716,96.0,32.0,EAT                                    DON'T EAT,2727.2073,2721.169,2455.2388
313,3,False,right,approach,pos,cake8_crop.jpg,4,32,1.0,312.0,1,2729.9348,96.0,32.0,EAT                                    DON'T EAT,2729.2258,2721.169,2455.2388
314,3,False,right,approach,pos,cake31_crop.jpg,4,32,1.0,313.0,1,2731.8464,96.0,32.0,EAT                                    DON'T EAT,2731.244,2721.169,2455.2388
315,3,False,right,approach,pos,cake29_crop.jpg,4,32,1.0,314.0,1,2733.9067,96.0,32.0,EAT                                    DON'T EAT,2733.2622,2721.169,2455.2388
316,3,False,right,approach,pos,cake18_crop.jpg,4,32,1.0,315.0,1,2735.967,96.0,32.0,EAT                                    DON'T EAT,2735.2805,2721.169,2455.2388
317,3,False,right,approach,pos,cake34_crop.jpg,4,32,1.0,316.0,1,2737.9956,96.0,32.0,EAT                                    DON'T EAT,2737.299,2721.169,2455.2388
318,3,False,right,approach,pos,cake25_crop.jpg,4,32,1.0,317.0,1,2739.9617,96.0,32.0,EAT                                    DON'T EAT,2739.3171,2721.169,2455.2388
319,3,True,right,avoid,neg,fungus15_crop.jpg,4,32,1.0,318.0,2,2742.0427,96.0,32.0,EAT                                    DON'T EAT,2741.3357,2721.169,2455.2388
320,3,False,right,approach,pos,cake38_crop.jpg,4,32,1.0,319.0,1,2744.0522,96.0,32.0,EAT                                    DON'T EAT,2743.354,2721.169,2455.2388
