TrialNumber,n_block,catch,hand,mot,val,stim_name,run_number,num_block,ran,order,response,RT,Subject number,n_b,left_side_resp_label,trial_onset,blk_instr_onset,baseline_onset
1,0,False,left,avoid,neg,fungus30_crop.jpg,1,1,1.0,0.0,1,1679.0181,43.0,1.0,DON'T EAT                                    EAT,1677.8119,1673.7921,1662.3091
2,0,True,left,approach,neg,insect11_crop.jpg,1,1,1.0,1.0,2,1680.7205,43.0,1.0,DON'T EAT                                    EAT,1679.8303,1673.7921,1662.3091
3,0,False,left,avoid,neg,fungus6_crop.jpg,1,1,1.0,2.0,1,1682.9701,43.0,1.0,DON'T EAT                                    EAT,1681.8483,1673.7921,1662.3091
4,0,False,left,avoid,neg,fungus21_crop.jpg,1,1,1.0,3.0,1,1684.8336,43.0,1.0,DON'T EAT                                    EAT,1683.87,1673.7921,1662.3091
5,0,True,left,approach,pos,cake14_crop.jpg,1,1,1.0,4.0,2,1686.7128,43.0,1.0,DON'T EAT                                    EAT,1685.8878,1673.7921,1662.3091
6,0,False,left,avoid,neg,fungus3_crop.jpg,1,1,1.0,5.0,1,1689.4094,43.0,1.0,DON'T EAT                                    EAT,1687.9038,1673.7921,1662.3091
7,0,False,left,avoid,neg,fungus16_crop.jpg,1,1,1.0,6.0,1,1691.8606,43.0,1.0,DON'T EAT                                    EAT,1689.922,1673.7921,1662.3091
8,0,False,left,avoid,neg,fungus32_crop.jpg,1,1,1.0,7.0,1,1693.0214,43.0,1.0,DON'T EAT                                    EAT,1691.94,1673.7921,1662.3091
9,0,False,left,avoid,neg,fungus34_crop.jpg,1,1,1.0,8.0,1,1695.0807,43.0,1.0,DON'T EAT                                    EAT,1693.9583,1673.7921,1662.3091
10,0,False,left,avoid,neg,fungus23_crop.jpg,1,1,1.0,9.0,1,1696.863,43.0,1.0,DON'T EAT                                    EAT,1695.9768,1673.7921,1662.3091
11,0,True,right,approach,neg,insect11_crop.jpg,1,2,1.0,10.0,2,1715.4128,43.0,2.0,DON'T EAT                                    EAT,1714.5587,1710.5554,1662.3091
12,0,False,right,avoid,pos,meat36_crop.jpg,1,2,1.0,11.0,1,1717.4419,43.0,2.0,DON'T EAT                                    EAT,1716.577,1710.5554,1662.3091
13,0,False,right,avoid,pos,meat16_crop.jpg,1,2,1.0,12.0,1,1719.6138,43.0,2.0,DON'T EAT                                    EAT,1718.5955,1710.5554,1662.3091
14,0,True,right,approach,pos,cake28_crop.jpg,1,2,1.0,13.0,2,1721.4238,43.0,2.0,DON'T EAT                                    EAT,1720.6139,1710.5554,1662.3091
15,0,False,right,avoid,pos,meat39_crop.jpg,1,2,1.0,14.0,2,1724.0466,43.0,2.0,DON'T EAT                                    EAT,1722.6322,1710.5554,1662.3091
16,0,False,right,avoid,pos,meat29_crop.jpg,1,2,1.0,15.0,1,1725.4839,43.0,2.0,DON'T EAT                                    EAT,1724.6505,1710.5554,1662.3091
17,0,False,right,avoid,pos,meat31_crop.jpg,1,2,1.0,16.0,1,1727.5449,43.0,2.0,DON'T EAT                                    EAT,1726.6688,1710.5554,1662.3091
18,0,False,right,avoid,pos,meat19_crop.jpg,1,2,1.0,17.0,1,1729.5413,43.0,2.0,DON'T EAT                                    EAT,1728.6873,1710.5554,1662.3091
19,0,False,right,avoid,pos,meat8_crop.jpg,1,2,1.0,18.0,1,1731.4731,43.0,2.0,DON'T EAT                                    EAT,1730.7057,1710.5554,1662.3091
20,0,False,right,avoid,pos,meat28_crop.jpg,1,2,1.0,19.0,1,1733.6106,43.0,2.0,DON'T EAT                                    EAT,1732.7239,1710.5554,1662.3091
21,2,False,left,approach,pos,cake20_crop.jpg,1,3,1.0,20.0,2,1751.0479,43.0,3.0,DON'T EAT                                    EAT,1749.7881,1745.7847,1662.3091
22,2,False,left,approach,pos,cake26_crop.jpg,1,3,1.0,21.0,2,1752.7147,43.0,3.0,DON'T EAT                                    EAT,1751.8068,1745.7847,1662.3091
23,2,True,left,avoid,pos,meat4_crop.jpg,1,3,1.0,22.0,1,1754.9755,43.0,3.0,DON'T EAT                                    EAT,1753.8248,1745.7847,1662.3091
24,2,False,left,approach,pos,cake27_crop.jpg,1,3,1.0,23.0,2,1756.7096,43.0,3.0,DON'T EAT                                    EAT,1755.8431,1745.7847,1662.3091
25,2,True,left,avoid,neg,fungus31_crop.jpg,1,3,1.0,24.0,1,1758.7145,43.0,3.0,DON'T EAT                                    EAT,1757.8615,1745.7847,1662.3091
26,2,False,left,approach,pos,cake2_crop.jpg,1,3,1.0,25.0,2,1760.6587,43.0,3.0,DON'T EAT                                    EAT,1759.8798,1745.7847,1662.3091
27,2,False,left,approach,pos,cake3_crop.jpg,1,3,1.0,26.0,2,1762.7203,43.0,3.0,DON'T EAT                                    EAT,1761.8982,1745.7847,1662.3091
28,2,False,left,approach,pos,cake37_crop.jpg,1,3,1.0,27.0,2,1764.8041,43.0,3.0,DON'T EAT                                    EAT,1763.9165,1745.7847,1662.3091
29,2,False,left,approach,pos,cake4_crop.jpg,1,3,1.0,28.0,2,1766.8677,43.0,3.0,DON'T EAT                                    EAT,1765.9348,1745.7847,1662.3091
30,2,False,left,approach,pos,cake6_crop.jpg,1,3,1.0,29.0,2,1769.4764,43.0,3.0,DON'T EAT                                    EAT,1767.9532,1745.7847,1662.3091
31,3,True,left,avoid,neg,fungus2_crop.jpg,1,4,1.0,30.0,1,1788.2736,43.0,4.0,DON'T EAT                                    EAT,1787.386,1783.3827,1662.3091
32,3,False,left,approach,pos,cake35_crop.jpg,1,4,1.0,31.0,2,1790.1383,43.0,4.0,DON'T EAT                                    EAT,1789.4043,1783.3827,1662.3091
33,3,True,left,avoid,pos,meat13_crop.jpg,1,4,1.0,32.0,1,1793.1221,43.0,4.0,DON'T EAT                                    EAT,1791.4226,1783.3827,1662.3091
34,3,False,left,approach,pos,cake11_crop.jpg,1,4,1.0,33.0,2,1794.2181,43.0,4.0,DON'T EAT                                    EAT,1793.441,1783.3827,1662.3091
35,3,False,left,approach,pos,cake40_crop.jpg,1,4,1.0,34.0,2,1796.1057,43.0,4.0,DON'T EAT                                    EAT,1795.4592,1783.3827,1662.3091
36,3,False,left,approach,pos,cake5_crop.jpg,1,4,1.0,35.0,2,1798.0887,43.0,4.0,DON'T EAT                                    EAT,1797.4777,1783.3827,1662.3091
37,3,False,left,approach,pos,cake25_crop.jpg,1,4,1.0,36.0,2,1800.2268,43.0,4.0,DON'T EAT                                    EAT,1799.496,1783.3827,1662.3091
38,3,False,left,approach,pos,cake8_crop.jpg,1,4,1.0,37.0,2,1802.1383,43.0,4.0,DON'T EAT                                    EAT,1801.5144,1783.3827,1662.3091
39,3,False,left,approach,pos,cake22_crop.jpg,1,4,1.0,38.0,2,1804.2084,43.0,4.0,DON'T EAT                                    EAT,1803.5327,1783.3827,1662.3091
40,3,False,left,approach,pos,cake19_crop.jpg,1,4,1.0,39.0,2,1806.4591,43.0,4.0,DON'T EAT                                    EAT,1805.5511,1783.3827,1662.3091
41,3,False,left,avoid,neg,fungus9_crop.jpg,1,5,1.0,40.0,1,1825.354,43.0,5.0,DON'T EAT                                    EAT,1824.2499,1820.23,1662.3091
42,3,False,left,avoid,neg,fungus10_crop.jpg,1,5,1.0,41.0,1,1826.9465,43.0,5.0,DON'T EAT                                    EAT,1826.2683,1820.23,1662.3091
43,3,False,left,avoid,neg,fungus28_crop.jpg,1,5,1.0,42.0,1,1828.9114,43.0,5.0,DON'T EAT                                    EAT,1828.2866,1820.23,1662.3091
44,3,True,left,approach,pos,cake30_crop.jpg,1,5,1.0,43.0,2,1830.9813,43.0,5.0,DON'T EAT                                    EAT,1830.3049,1820.23,1662.3091
45,3,False,left,avoid,neg,fungus8_crop.jpg,1,5,1.0,44.0,1,1833.0781,43.0,5.0,DON'T EAT                                    EAT,1832.3232,1820.23,1662.3091
46,3,False,left,avoid,neg,fungus37_crop.jpg,1,5,1.0,45.0,1,1835.1411,43.0,5.0,DON'T EAT                                    EAT,1834.3416,1820.23,1662.3091
47,3,False,left,avoid,neg,fungus38_crop.jpg,1,5,1.0,46.0,1,1837.0916,43.0,5.0,DON'T EAT                                    EAT,1836.3599,1820.23,1662.3091
48,3,False,left,avoid,neg,fungus39_crop.jpg,1,5,1.0,47.0,1,1839.0455,43.0,5.0,DON'T EAT                                    EAT,1838.3784,1820.23,1662.3091
49,3,False,left,avoid,neg,fungus20_crop.jpg,1,5,1.0,48.0,1,1841.61,43.0,5.0,DON'T EAT                                    EAT,1840.3966,1820.23,1662.3091
50,3,True,left,approach,neg,insect30_crop.jpg,1,5,1.0,49.0,2,1843.1471,43.0,5.0,DON'T EAT                                    EAT,1842.415,1820.23,1662.3091
51,3,True,right,avoid,pos,meat12_crop.jpg,1,6,1.0,50.0,1,1863.0262,43.0,6.0,DON'T EAT                                    EAT,1861.998,1857.9779,1662.3091
52,3,False,right,approach,pos,cake3_crop.jpg,1,6,1.0,51.0,2,1864.7162,43.0,6.0,DON'T EAT                                    EAT,1864.0162,1857.9779,1662.3091
53,3,False,right,approach,pos,cake1_crop.jpg,1,6,1.0,52.0,2,1866.6663,43.0,6.0,DON'T EAT                                    EAT,1866.0345,1857.9779,1662.3091
54,3,False,right,approach,pos,cake10_crop.jpg,1,6,1.0,53.0,2,1868.6644,43.0,6.0,DON'T EAT                                    EAT,1868.053,1857.9779,1662.3091
55,3,False,right,approach,pos,cake11_crop.jpg,1,6,1.0,54.0,2,1870.6079,43.0,6.0,DON'T EAT                                    EAT,1870.0713,1857.9779,1662.3091
56,3,False,right,approach,pos,cake24_crop.jpg,1,6,1.0,55.0,2,1872.6573,43.0,6.0,DON'T EAT                                    EAT,1872.0896,1857.9779,1662.3091
57,3,False,right,approach,pos,cake15_crop.jpg,1,6,1.0,56.0,2,1874.7112,43.0,6.0,DON'T EAT                                    EAT,1874.1079,1857.9779,1662.3091
58,3,True,right,avoid,neg,fungus23_crop.jpg,1,6,1.0,57.0,1,1876.9473,43.0,6.0,DON'T EAT                                    EAT,1876.1263,1857.9779,1662.3091
59,3,False,right,approach,pos,cake14_crop.jpg,1,6,1.0,58.0,2,1878.9324,43.0,6.0,DON'T EAT                                    EAT,1878.1448,1857.9779,1662.3091
60,3,False,right,approach,pos,cake35_crop.jpg,1,6,1.0,59.0,2,1880.8304,43.0,6.0,DON'T EAT                                    EAT,1880.163,1857.9779,1662.3091
61,2,False,left,avoid,neg,fungus27_crop.jpg,1,7,1.0,60.0,1,1900.1422,43.0,7.0,DON'T EAT                                    EAT,1899.3123,1895.2922,1662.3091
62,2,False,left,avoid,neg,fungus25_crop.jpg,1,7,1.0,61.0,1,1902.0443,43.0,7.0,DON'T EAT                                    EAT,1901.3306,1895.2922,1662.3091
63,2,True,left,approach,neg,insect15_crop.jpg,1,7,1.0,62.0,2,1904.1595,43.0,7.0,DON'T EAT                                    EAT,1903.3489,1895.2922,1662.3091
64,2,False,left,avoid,neg,fungus1_crop.jpg,1,7,1.0,63.0,1,1906.0684,43.0,7.0,DON'T EAT                                    EAT,1905.3673,1895.2922,1662.3091
65,2,False,left,avoid,neg,fungus26_crop.jpg,1,7,1.0,64.0,1,1908.0297,43.0,7.0,DON'T EAT                                    EAT,1907.3856,1895.2922,1662.3091
66,2,True,left,approach,pos,cake34_crop.jpg,1,7,1.0,65.0,2,1910.1925,43.0,7.0,DON'T EAT                                    EAT,1909.4042,1895.2922,1662.3091
67,2,False,left,avoid,neg,fungus5_crop.jpg,1,7,1.0,66.0,1,1912.2428,43.0,7.0,DON'T EAT                                    EAT,1911.4224,1895.2922,1662.3091
68,2,False,left,avoid,neg,fungus40_crop.jpg,1,7,1.0,67.0,1,1914.3356,43.0,7.0,DON'T EAT                                    EAT,1913.4407,1895.2922,1662.3091
69,2,False,left,avoid,neg,fungus14_crop.jpg,1,7,1.0,68.0,1,1916.1818,43.0,7.0,DON'T EAT                                    EAT,1915.459,1895.2922,1662.3091
70,2,False,left,avoid,neg,fungus36_crop.jpg,1,7,1.0,69.0,1,1918.2336,43.0,7.0,DON'T EAT                                    EAT,1917.4774,1895.2922,1662.3091
71,2,False,right,approach,pos,cake39_crop.jpg,1,8,1.0,70.0,2,1935.862,43.0,8.0,DON'T EAT                                    EAT,1935.1085,1931.0886,1662.3091
72,2,False,right,approach,pos,cake4_crop.jpg,1,8,1.0,71.0,2,1937.7944,43.0,8.0,DON'T EAT                                    EAT,1937.127,1931.0886,1662.3091
73,2,False,right,approach,pos,cake23_crop.jpg,1,8,1.0,72.0,2,1939.9766,43.0,8.0,DON'T EAT                                    EAT,1939.1454,1931.0886,1662.3091
74,2,False,right,approach,pos,cake5_crop.jpg,1,8,1.0,73.0,2,1941.8298,43.0,8.0,DON'T EAT                                    EAT,1941.1636,1931.0886,1662.3091
75,2,True,right,avoid,neg,fungus32_crop.jpg,1,8,1.0,74.0,1,1943.9482,43.0,8.0,DON'T EAT                                    EAT,1943.182,1931.0886,1662.3091
76,2,False,right,approach,pos,cake36_crop.jpg,1,8,1.0,75.0,2,1945.8575,43.0,8.0,DON'T EAT                                    EAT,1945.2004,1931.0886,1662.3091
77,2,False,right,approach,pos,cake22_crop.jpg,1,8,1.0,76.0,2,1947.9639,43.0,8.0,DON'T EAT                                    EAT,1947.2188,1931.0886,1662.3091
78,2,False,right,approach,pos,cake20_crop.jpg,1,8,1.0,77.0,2,1949.9027,43.0,8.0,DON'T EAT                                    EAT,1949.2372,1931.0886,1662.3091
79,2,False,right,approach,pos,cake12_crop.jpg,1,8,1.0,78.0,2,1951.8348,43.0,8.0,DON'T EAT                                    EAT,1951.2554,1931.0886,1662.3091
80,2,True,right,avoid,pos,meat18_crop.jpg,1,8,1.0,79.0,1,1954.1722,43.0,8.0,DON'T EAT                                    EAT,1953.2738,1931.0886,1662.3091
81,0,True,right,avoid,pos,meat2_crop.jpg,2,9,1.0,80.0,1,2066.3574,43.0,9.0,DON'T EAT                                    EAT,2065.317,2061.297,2050.224
82,0,False,right,approach,neg,insect13_crop.jpg,2,9,1.0,81.0,2,2068.2031,43.0,9.0,DON'T EAT                                    EAT,2067.3357,2061.297,2050.224
83,0,False,right,approach,neg,insect37_crop.jpg,2,9,1.0,82.0,2,2070.8677,43.0,9.0,DON'T EAT                                    EAT,2069.354,2061.297,2050.224
84,0,False,right,approach,neg,insect36_crop.jpg,2,9,1.0,83.0,2,2072.466,43.0,9.0,DON'T EAT                                    EAT,2071.3723,2061.297,2050.224
85,0,False,right,approach,neg,insect24_crop.jpg,2,9,1.0,84.0,2,2074.1528,43.0,9.0,DON'T EAT                                    EAT,2073.3906,2061.297,2050.224
86,0,False,right,approach,neg,insect19_crop.jpg,2,9,1.0,85.0,2,2076.1196,43.0,9.0,DON'T EAT                                    EAT,2075.409,2061.297,2050.224
87,0,False,right,approach,neg,insect31_crop.jpg,2,9,1.0,86.0,2,2078.0825,43.0,9.0,DON'T EAT                                    EAT,2077.4272,2061.297,2050.224
88,0,True,right,avoid,neg,fungus7_crop.jpg,2,9,1.0,87.0,1,2080.5679,43.0,9.0,DON'T EAT                                    EAT,2079.4458,2061.297,2050.224
89,0,False,right,approach,neg,insect34_crop.jpg,2,9,1.0,88.0,2,2082.1765,43.0,9.0,DON'T EAT                                    EAT,2081.464,2061.297,2050.224
90,0,False,right,approach,neg,insect23_crop.jpg,2,9,1.0,89.0,2,2084.1797,43.0,9.0,DON'T EAT                                    EAT,2083.4822,2061.297,2050.224
91,0,False,left,avoid,pos,meat34_crop.jpg,2,10,1.0,90.0,1,2104.3994,43.0,10.0,DON'T EAT                                    EAT,2102.4644,2098.4448,2050.224
92,0,False,left,avoid,pos,meat19_crop.jpg,2,10,1.0,91.0,1,2105.3818,43.0,10.0,DON'T EAT                                    EAT,2104.4832,2098.4448,2050.224
93,0,False,left,avoid,pos,meat16_crop.jpg,2,10,1.0,92.0,1,2107.3577,43.0,10.0,DON'T EAT                                    EAT,2106.5015,2098.4448,2050.224
94,0,False,left,avoid,pos,meat27_crop.jpg,2,10,1.0,93.0,1,2109.1638,43.0,10.0,DON'T EAT                                    EAT,2108.52,2098.4448,2050.224
95,0,False,left,avoid,pos,meat1_crop.jpg,2,10,1.0,94.0,1,2111.3135,43.0,10.0,DON'T EAT                                    EAT,2110.5383,2098.4448,2050.224
96,0,False,left,avoid,pos,meat36_crop.jpg,2,10,1.0,95.0,1,2113.235,43.0,10.0,DON'T EAT                                    EAT,2112.557,2098.4448,2050.224
97,0,False,left,avoid,pos,meat26_crop.jpg,2,10,1.0,96.0,1,2115.2417,43.0,10.0,DON'T EAT                                    EAT,2114.575,2098.4448,2050.224
98,0,False,left,avoid,pos,meat7_crop.jpg,2,10,1.0,97.0,1,2117.2957,43.0,10.0,DON'T EAT                                    EAT,2116.5928,2098.4448,2050.224
99,0,True,left,approach,neg,insect38_crop.jpg,2,10,1.0,98.0,2,2119.446,43.0,10.0,DON'T EAT                                    EAT,2118.6113,2098.4448,2050.224
100,0,True,left,approach,pos,cake16_crop.jpg,2,10,1.0,99.0,2,2121.4128,43.0,10.0,DON'T EAT                                    EAT,2120.63,2098.4448,2050.224
101,2,False,left,approach,neg,insect40_crop.jpg,2,11,1.0,100.0,2,2138.0842,43.0,11.0,DON'T EAT                                    EAT,2137.2605,2133.2405,2050.224
102,2,False,left,approach,neg,insect3_crop.jpg,2,11,1.0,101.0,2,2139.998,43.0,11.0,DON'T EAT                                    EAT,2139.2788,2133.2405,2050.224
103,2,False,left,approach,neg,insect33_crop.jpg,2,11,1.0,102.0,2,2141.9106,43.0,11.0,DON'T EAT                                    EAT,2141.297,2133.2405,2050.224
104,2,False,left,approach,neg,insect14_crop.jpg,2,11,1.0,103.0,2,2143.8867,43.0,11.0,DON'T EAT                                    EAT,2143.3157,2133.2405,2050.224
105,2,False,left,approach,neg,insect20_crop.jpg,2,11,1.0,104.0,2,2145.8733,43.0,11.0,DON'T EAT                                    EAT,2145.3337,2133.2405,2050.224
106,2,False,left,approach,neg,insect28_crop.jpg,2,11,1.0,105.0,2,2147.8718,43.0,11.0,DON'T EAT                                    EAT,2147.3518,2133.2405,2050.224
107,2,True,left,avoid,pos,meat5_crop.jpg,2,11,1.0,106.0,1,2150.113,43.0,11.0,DON'T EAT                                    EAT,2149.3706,2133.2405,2050.224
108,2,True,left,avoid,neg,fungus24_crop.jpg,2,11,1.0,107.0,1,2152.1511,43.0,11.0,DON'T EAT                                    EAT,2151.389,2133.2405,2050.224
109,2,False,left,approach,neg,insect24_crop.jpg,2,11,1.0,108.0,2,2154.0847,43.0,11.0,DON'T EAT                                    EAT,2153.407,2133.2405,2050.224
110,2,False,left,approach,neg,insect22_crop.jpg,2,11,1.0,109.0,2,2156.1636,43.0,11.0,DON'T EAT                                    EAT,2155.4255,2133.2405,2050.224
111,3,False,right,approach,neg,insect35_crop.jpg,2,12,1.0,110.0,2,2174.5479,43.0,12.0,DON'T EAT                                    EAT,2173.8406,2169.8206,2050.224
112,3,False,right,approach,neg,insect39_crop.jpg,2,12,1.0,111.0,2,2176.4836,43.0,12.0,DON'T EAT                                    EAT,2175.8591,2169.8206,2050.224
113,3,True,right,avoid,neg,fungus27_crop.jpg,2,12,1.0,112.0,1,2178.6084,43.0,12.0,DON'T EAT                                    EAT,2177.8772,2169.8206,2050.224
114,3,False,right,approach,neg,insect10_crop.jpg,2,12,1.0,113.0,2,2180.6475,43.0,12.0,DON'T EAT                                    EAT,2179.8958,2169.8206,2050.224
115,3,False,right,approach,neg,insect2_crop.jpg,2,12,1.0,114.0,2,2182.5874,43.0,12.0,DON'T EAT                                    EAT,2181.9138,2169.8206,2050.224
116,3,False,right,approach,neg,insect28_crop.jpg,2,12,1.0,115.0,2,2184.5435,43.0,12.0,DON'T EAT                                    EAT,2183.9326,2169.8206,2050.224
117,3,False,right,approach,neg,insect3_crop.jpg,2,12,1.0,116.0,2,2186.523,43.0,12.0,DON'T EAT                                    EAT,2185.9504,2169.8206,2050.224
118,3,False,right,approach,neg,insect29_crop.jpg,2,12,1.0,117.0,2,2188.6562,43.0,12.0,DON'T EAT                                    EAT,2187.9692,2169.8206,2050.224
119,3,True,right,avoid,pos,meat17_crop.jpg,2,12,1.0,118.0,1,2190.8232,43.0,12.0,DON'T EAT                                    EAT,2189.9875,2169.8206,2050.224
120,3,False,right,approach,neg,insect14_crop.jpg,2,12,1.0,119.0,2,2192.657,43.0,12.0,DON'T EAT                                    EAT,2192.0056,2169.8206,2050.224
121,2,False,right,approach,neg,insect33_crop.jpg,2,13,1.0,120.0,2,2212.0105,43.0,13.0,DON'T EAT                                    EAT,2211.322,2207.3018,2050.224
122,2,True,right,avoid,pos,meat30_crop.jpg,2,13,1.0,121.0,1,2214.0708,43.0,13.0,DON'T EAT                                    EAT,2213.3403,2207.3018,2050.224
123,2,False,right,approach,neg,insect4_crop.jpg,2,13,1.0,122.0,2,2216.1814,43.0,13.0,DON'T EAT                                    EAT,2215.3586,2207.3018,2050.224
124,2,False,right,approach,neg,insect17_crop.jpg,2,13,1.0,123.0,2,2217.9814,43.0,13.0,DON'T EAT                                    EAT,2217.3767,2207.3018,2050.224
125,2,False,right,approach,neg,insect40_crop.jpg,2,13,1.0,124.0,2,2220.179,43.0,13.0,DON'T EAT                                    EAT,2219.3953,2207.3018,2050.224
126,2,False,right,approach,neg,insect21_crop.jpg,2,13,1.0,125.0,2,2222.0674,43.0,13.0,DON'T EAT                                    EAT,2221.4138,2207.3018,2050.224
127,2,False,right,approach,neg,insect26_crop.jpg,2,13,1.0,126.0,2,2223.9946,43.0,13.0,DON'T EAT                                    EAT,2223.432,2207.3018,2050.224
128,2,False,right,approach,neg,insect25_crop.jpg,2,13,1.0,127.0,2,2226.107,43.0,13.0,DON'T EAT                                    EAT,2225.4504,2207.3018,2050.224
129,2,True,right,avoid,neg,fungus39_crop.jpg,2,13,1.0,128.0,1,2228.3213,43.0,13.0,DON'T EAT                                    EAT,2227.4688,2207.3018,2050.224
130,2,False,right,approach,neg,insect30_crop.jpg,2,13,1.0,129.0,2,2230.1946,43.0,13.0,DON'T EAT                                    EAT,2229.487,2207.3018,2050.224
131,1,False,right,approach,neg,insect22_crop.jpg,2,14,1.0,130.0,2,2249.9446,43.0,14.0,DON'T EAT                                    EAT,2249.2368,2245.2163,2050.224
132,1,False,right,approach,neg,insect27_crop.jpg,2,14,1.0,131.0,2,2251.8274,43.0,14.0,DON'T EAT                                    EAT,2251.2551,2245.2163,2050.224
133,1,False,right,approach,neg,insect32_crop.jpg,2,14,1.0,132.0,2,2253.877,43.0,14.0,DON'T EAT                                    EAT,2253.2737,2245.2163,2050.224
134,1,True,right,avoid,neg,fungus38_crop.jpg,2,14,1.0,133.0,1,2256.0637,43.0,14.0,DON'T EAT                                    EAT,2255.2917,2245.2163,2050.224
135,1,True,right,avoid,pos,meat37_crop.jpg,2,14,1.0,134.0,1,2258.2095,43.0,14.0,DON'T EAT                                    EAT,2257.3103,2245.2163,2050.224
136,1,False,right,approach,neg,insect7_crop.jpg,2,14,1.0,135.0,2,2259.9753,43.0,14.0,DON'T EAT                                    EAT,2259.3286,2245.2163,2050.224
137,1,False,right,approach,neg,insect6_crop.jpg,2,14,1.0,136.0,2,2261.9277,43.0,14.0,DON'T EAT                                    EAT,2261.346,2245.2163,2050.224
138,1,False,right,approach,neg,insect8_crop.jpg,2,14,1.0,137.0,2,2263.9495,43.0,14.0,DON'T EAT                                    EAT,2263.365,2245.2163,2050.224
139,1,False,right,approach,neg,insect12_crop.jpg,2,14,1.0,138.0,2,2266.0525,43.0,14.0,DON'T EAT                                    EAT,2265.3835,2245.2163,2050.224
140,1,False,right,approach,neg,insect15_crop.jpg,2,14,1.0,139.0,2,2267.9521,43.0,14.0,DON'T EAT                                    EAT,2267.4019,2245.2163,2050.224
141,2,False,right,avoid,neg,fungus25_crop.jpg,2,15,1.0,140.0,1,2284.6182,43.0,15.0,DON'T EAT                                    EAT,2283.7822,2279.7617,2050.224
142,2,False,right,avoid,neg,fungus2_crop.jpg,2,15,1.0,141.0,1,2286.4346,43.0,15.0,DON'T EAT                                    EAT,2285.8005,2279.7617,2050.224
143,2,True,right,approach,pos,cake2_crop.jpg,2,15,1.0,142.0,2,2288.5803,43.0,15.0,DON'T EAT                                    EAT,2287.8188,2279.7617,2050.224
144,2,False,right,avoid,neg,fungus9_crop.jpg,2,15,1.0,143.0,1,2290.734,43.0,15.0,DON'T EAT                                    EAT,2289.8372,2279.7617,2050.224
145,2,False,right,avoid,neg,fungus40_crop.jpg,2,15,1.0,144.0,1,2292.7283,43.0,15.0,DON'T EAT                                    EAT,2291.8557,2279.7617,2050.224
146,2,False,right,avoid,neg,fungus11_crop.jpg,2,15,1.0,145.0,1,2294.7314,43.0,15.0,DON'T EAT                                    EAT,2293.874,2279.7617,2050.224
147,2,False,right,avoid,neg,fungus12_crop.jpg,2,15,1.0,146.0,1,2296.7073,43.0,15.0,DON'T EAT                                    EAT,2295.892,2279.7617,2050.224
148,2,True,right,approach,neg,insect18_crop.jpg,2,15,1.0,147.0,2,2298.5767,43.0,15.0,DON'T EAT                                    EAT,2297.9106,2279.7617,2050.224
149,2,False,right,avoid,neg,fungus37_crop.jpg,2,15,1.0,148.0,1,2300.6772,43.0,15.0,DON'T EAT                                    EAT,2299.929,2279.7617,2050.224
150,2,False,right,avoid,neg,fungus22_crop.jpg,2,15,1.0,149.0,1,2302.6213,43.0,15.0,DON'T EAT                                    EAT,2301.947,2279.7617,2050.224
151,1,False,left,avoid,neg,fungus12_crop.jpg,2,16,1.0,150.0,1,2321.5159,43.0,16.0,DON'T EAT                                    EAT,2320.6794,2316.6594,2050.224
152,1,False,left,avoid,neg,fungus4_crop.jpg,2,16,1.0,151.0,1,2323.3538,43.0,16.0,DON'T EAT                                    EAT,2322.6975,2316.6594,2050.224
153,1,False,left,avoid,neg,fungus19_crop.jpg,2,16,1.0,152.0,1,2325.2893,43.0,16.0,DON'T EAT                                    EAT,2324.7163,2316.6594,2050.224
154,1,False,left,avoid,neg,fungus18_crop.jpg,2,16,1.0,153.0,1,2327.3044,43.0,16.0,DON'T EAT                                    EAT,2326.7346,2316.6594,2050.224
155,1,False,left,avoid,neg,fungus33_crop.jpg,2,16,1.0,154.0,1,2329.294,43.0,16.0,DON'T EAT                                    EAT,2328.753,2316.6594,2050.224
156,1,False,left,avoid,neg,fungus15_crop.jpg,2,16,1.0,155.0,1,2331.3086,43.0,16.0,DON'T EAT                                    EAT,2330.7715,2316.6594,2050.224
157,1,True,left,approach,pos,cake39_crop.jpg,2,16,1.0,156.0,2,2333.5183,43.0,16.0,DON'T EAT                                    EAT,2332.7896,2316.6594,2050.224
158,1,False,left,avoid,neg,fungus35_crop.jpg,2,16,1.0,157.0,1,2335.5728,43.0,16.0,DON'T EAT                                    EAT,2334.8076,2316.6594,2050.224
159,1,False,left,avoid,neg,fungus11_crop.jpg,2,16,1.0,158.0,1,2337.4539,43.0,16.0,DON'T EAT                                    EAT,2336.8262,2316.6594,2050.224
160,1,True,left,approach,neg,insect6_crop.jpg,2,16,1.0,159.0,2,2339.5344,43.0,16.0,DON'T EAT                                    EAT,2338.8445,2316.6594,2050.224
161,1,False,right,avoid,neg,fungus24_crop.jpg,3,17,1.0,160.0,1,2434.0876,43.0,17.0,DON'T EAT                                    EAT,2433.273,2429.253,2418.1724
162,1,False,right,avoid,neg,fungus26_crop.jpg,3,17,1.0,161.0,1,2435.9043,43.0,17.0,DON'T EAT                                    EAT,2435.2913,2429.253,2418.1724
163,1,True,right,approach,pos,cake8_crop.jpg,3,17,1.0,162.0,2,2438.113,43.0,17.0,DON'T EAT                                    EAT,2437.3096,2429.253,2418.1724
164,1,False,right,avoid,neg,fungus1_crop.jpg,3,17,1.0,163.0,1,2440.0146,43.0,17.0,DON'T EAT                                    EAT,2439.328,2429.253,2418.1724
165,1,True,right,approach,neg,insect16_crop.jpg,3,17,1.0,164.0,2,2442.0242,43.0,17.0,DON'T EAT                                    EAT,2441.3464,2429.253,2418.1724
166,1,False,right,avoid,neg,fungus15_crop.jpg,3,17,1.0,165.0,1,2443.988,43.0,17.0,DON'T EAT                                    EAT,2443.364,2429.253,2418.1724
167,1,False,right,avoid,neg,fungus4_crop.jpg,3,17,1.0,166.0,1,2446.0068,43.0,17.0,DON'T EAT                                    EAT,2445.3826,2429.253,2418.1724
168,1,False,right,avoid,neg,fungus17_crop.jpg,3,17,1.0,167.0,1,2448.1843,43.0,17.0,DON'T EAT                                    EAT,2447.4014,2429.253,2418.1724
169,1,False,right,avoid,neg,fungus20_crop.jpg,3,17,1.0,168.0,1,2450.1926,43.0,17.0,DON'T EAT                                    EAT,2449.4197,2429.253,2418.1724
170,1,False,right,avoid,neg,fungus19_crop.jpg,3,17,1.0,169.0,1,2452.0408,43.0,17.0,DON'T EAT                                    EAT,2451.438,2429.253,2418.1724
171,0,False,left,approach,neg,insect13_crop.jpg,3,18,1.0,170.0,2,2469.8352,43.0,18.0,DON'T EAT                                    EAT,2469.053,2465.0327,2418.1724
172,0,False,left,approach,neg,insect9_crop.jpg,3,18,1.0,171.0,2,2471.5908,43.0,18.0,DON'T EAT                                    EAT,2471.071,2465.0327,2418.1724
173,0,True,left,avoid,pos,meat14_crop.jpg,3,18,1.0,172.0,1,2474.125,43.0,18.0,DON'T EAT                                    EAT,2473.0894,2465.0327,2418.1724
174,0,False,left,approach,neg,insect36_crop.jpg,3,18,1.0,173.0,2,2475.8572,43.0,18.0,DON'T EAT                                    EAT,2475.1077,2465.0327,2418.1724
175,0,False,left,approach,neg,insect27_crop.jpg,3,18,1.0,174.0,2,2477.8645,43.0,18.0,DON'T EAT                                    EAT,2477.126,2465.0327,2418.1724
176,0,False,left,approach,neg,insect8_crop.jpg,3,18,1.0,175.0,2,2479.7795,43.0,18.0,DON'T EAT                                    EAT,2479.144,2465.0327,2418.1724
177,0,False,left,approach,neg,insect39_crop.jpg,3,18,1.0,176.0,2,2481.7036,43.0,18.0,DON'T EAT                                    EAT,2481.1628,2465.0327,2418.1724
178,0,True,left,avoid,neg,fungus7_crop.jpg,3,18,1.0,177.0,1,2483.9006,43.0,18.0,DON'T EAT                                    EAT,2483.1812,2465.0327,2418.1724
179,0,False,left,approach,neg,insect29_crop.jpg,3,18,1.0,178.0,2,2486.109,43.0,18.0,DON'T EAT                                    EAT,2485.1995,2465.0327,2418.1724
180,0,False,left,approach,neg,insect19_crop.jpg,3,18,1.0,179.0,2,2487.8716,43.0,18.0,DON'T EAT                                    EAT,2487.2178,2465.0327,2418.1724
181,1,False,left,approach,neg,insect32_crop.jpg,3,19,1.0,180.0,2,2504.5403,43.0,19.0,DON'T EAT                                    EAT,2503.881,2499.8616,2418.1724
182,1,False,left,approach,neg,insect23_crop.jpg,3,19,1.0,181.0,2,2506.4111,43.0,19.0,DON'T EAT                                    EAT,2505.9,2499.8616,2418.1724
183,1,False,left,approach,neg,insect18_crop.jpg,3,19,1.0,182.0,2,2508.4587,43.0,19.0,DON'T EAT                                    EAT,2507.9182,2499.8616,2418.1724
184,1,True,left,avoid,neg,fungus22_crop.jpg,3,19,1.0,183.0,1,2510.5425,43.0,19.0,DON'T EAT                                    EAT,2509.9368,2499.8616,2418.1724
185,1,False,left,approach,neg,insect37_crop.jpg,3,19,1.0,184.0,2,2512.65,43.0,19.0,DON'T EAT                                    EAT,2511.955,2499.8616,2418.1724
186,1,False,left,approach,neg,insect2_crop.jpg,3,19,1.0,185.0,2,2514.5789,43.0,19.0,DON'T EAT                                    EAT,2513.9734,2499.8616,2418.1724
187,1,False,left,approach,neg,insect16_crop.jpg,3,19,1.0,186.0,2,2516.6692,43.0,19.0,DON'T EAT                                    EAT,2515.9917,2499.8616,2418.1724
188,1,False,left,approach,neg,insect21_crop.jpg,3,19,1.0,187.0,2,2518.6128,43.0,19.0,DON'T EAT                                    EAT,2518.01,2499.8616,2418.1724
189,1,True,left,avoid,pos,meat15_crop.jpg,3,19,1.0,188.0,1,2520.761,43.0,19.0,DON'T EAT                                    EAT,2520.0283,2499.8616,2418.1724
190,1,False,left,approach,neg,insect31_crop.jpg,3,19,1.0,189.0,2,2522.6694,43.0,19.0,DON'T EAT                                    EAT,2522.0469,2499.8616,2418.1724
191,1,False,left,approach,pos,cake10_crop.jpg,3,20,1.0,190.0,2,2542.6448,43.0,20.0,DON'T EAT                                    EAT,2541.613,2537.5928,2418.1724
192,1,False,left,approach,pos,cake1_crop.jpg,3,20,1.0,191.0,2,2544.2236,43.0,20.0,DON'T EAT                                    EAT,2543.6313,2537.5928,2418.1724
193,1,False,left,approach,pos,cake12_crop.jpg,3,20,1.0,192.0,2,2546.1465,43.0,20.0,DON'T EAT                                    EAT,2545.6497,2537.5928,2418.1724
194,1,False,left,approach,pos,cake36_crop.jpg,3,20,1.0,193.0,2,2548.1646,43.0,20.0,DON'T EAT                                    EAT,2547.668,2537.5928,2418.1724
195,1,False,left,approach,pos,cake17_crop.jpg,3,20,1.0,194.0,2,2550.3,43.0,20.0,DON'T EAT                                    EAT,2549.6863,2537.5928,2418.1724
196,1,True,left,avoid,pos,meat2_crop.jpg,3,20,1.0,195.0,1,2552.4763,43.0,20.0,DON'T EAT                                    EAT,2551.7048,2537.5928,2418.1724
197,1,False,left,approach,pos,cake24_crop.jpg,3,20,1.0,196.0,2,2554.433,43.0,20.0,DON'T EAT                                    EAT,2553.7231,2537.5928,2418.1724
198,1,False,left,approach,pos,cake38_crop.jpg,3,20,1.0,197.0,2,2556.409,43.0,20.0,DON'T EAT                                    EAT,2555.7412,2537.5928,2418.1724
199,1,False,left,approach,pos,cake32_crop.jpg,3,20,1.0,198.0,2,2558.3381,43.0,20.0,DON'T EAT                                    EAT,2557.7593,2537.5928,2418.1724
200,1,True,left,avoid,neg,fungus13_crop.jpg,3,20,1.0,199.0,1,2560.7705,43.0,20.0,DON'T EAT                                    EAT,2559.778,2537.5928,2418.1724
201,0,True,right,avoid,neg,fungus13_crop.jpg,3,21,1.0,200.0,1,2577.657,43.0,21.0,DON'T EAT                                    EAT,2576.8423,2572.8223,2418.1724
202,0,False,right,approach,pos,cake30_crop.jpg,3,21,1.0,201.0,2,2579.5273,43.0,21.0,DON'T EAT                                    EAT,2578.8606,2572.8223,2418.1724
203,0,True,right,avoid,pos,meat5_crop.jpg,3,21,1.0,202.0,1,2581.6516,43.0,21.0,DON'T EAT                                    EAT,2580.879,2572.8223,2418.1724
204,0,False,right,approach,pos,cake40_crop.jpg,3,21,1.0,203.0,2,2583.5735,43.0,21.0,DON'T EAT                                    EAT,2582.897,2572.8223,2418.1724
205,0,False,right,approach,pos,cake6_crop.jpg,3,21,1.0,204.0,2,2585.5815,43.0,21.0,DON'T EAT                                    EAT,2584.9155,2572.8223,2418.1724
206,0,False,right,approach,pos,cake33_crop.jpg,3,21,1.0,205.0,2,2587.704,43.0,21.0,DON'T EAT                                    EAT,2586.934,2572.8223,2418.1724
207,0,False,right,approach,pos,cake13_crop.jpg,3,21,1.0,206.0,2,2589.6082,43.0,21.0,DON'T EAT                                    EAT,2588.952,2572.8223,2418.1724
208,0,False,right,approach,pos,cake26_crop.jpg,3,21,1.0,207.0,2,2591.5835,43.0,21.0,DON'T EAT                                    EAT,2590.9702,2572.8223,2418.1724
209,0,False,right,approach,pos,cake7_crop.jpg,3,21,1.0,208.0,2,2593.5713,43.0,21.0,DON'T EAT                                    EAT,2592.989,2572.8223,2418.1724
210,0,False,right,approach,pos,cake34_crop.jpg,3,21,1.0,209.0,2,2595.6934,43.0,21.0,DON'T EAT                                    EAT,2595.007,2572.8223,2418.1724
211,1,False,right,avoid,pos,meat26_crop.jpg,3,22,1.0,210.0,1,2613.7307,43.0,22.0,DON'T EAT                                    EAT,2612.788,2608.7686,2418.1724
212,1,False,right,avoid,pos,meat1_crop.jpg,3,22,1.0,211.0,1,2615.666,43.0,22.0,DON'T EAT                                    EAT,2614.8071,2608.7686,2418.1724
213,1,False,right,avoid,pos,meat27_crop.jpg,3,22,1.0,212.0,1,2617.6406,43.0,22.0,DON'T EAT                                    EAT,2616.8254,2608.7686,2418.1724
214,1,False,right,avoid,pos,meat4_crop.jpg,3,22,1.0,213.0,1,2619.5337,43.0,22.0,DON'T EAT                                    EAT,2618.8438,2608.7686,2418.1724
215,1,False,right,avoid,pos,meat21_crop.jpg,3,22,1.0,214.0,1,2621.57,43.0,22.0,DON'T EAT                                    EAT,2620.862,2608.7686,2418.1724
216,1,False,right,avoid,pos,meat9_crop.jpg,3,22,1.0,215.0,1,2623.8047,43.0,22.0,DON'T EAT                                    EAT,2622.8806,2608.7686,2418.1724
217,1,True,right,approach,pos,cake16_crop.jpg,3,22,1.0,216.0,2,2625.5847,43.0,22.0,DON'T EAT                                    EAT,2624.8982,2608.7686,2418.1724
218,1,False,right,avoid,pos,meat40_crop.jpg,3,22,1.0,217.0,1,2627.6345,43.0,22.0,DON'T EAT                                    EAT,2626.917,2608.7686,2418.1724
219,1,False,right,avoid,pos,meat6_crop.jpg,3,22,1.0,218.0,1,2629.6763,43.0,22.0,DON'T EAT                                    EAT,2628.9355,2608.7686,2418.1724
220,1,True,right,approach,neg,insect9_crop.jpg,3,22,1.0,219.0,2,2631.6296,43.0,22.0,DON'T EAT                                    EAT,2630.9539,2608.7686,2418.1724
221,3,False,right,avoid,neg,fungus35_crop.jpg,3,23,1.0,220.0,1,2649.7246,43.0,23.0,DON'T EAT                                    EAT,2648.8184,2644.7986,2418.1724
222,3,False,right,avoid,neg,fungus21_crop.jpg,3,23,1.0,221.0,1,2651.4207,43.0,23.0,DON'T EAT                                    EAT,2650.8372,2644.7986,2418.1724
223,3,True,right,approach,pos,cake38_crop.jpg,3,23,1.0,222.0,2,2653.6294,43.0,23.0,DON'T EAT                                    EAT,2652.855,2644.7986,2418.1724
224,3,False,right,avoid,neg,fungus29_crop.jpg,3,23,1.0,223.0,1,2655.607,43.0,23.0,DON'T EAT                                    EAT,2654.8738,2644.7986,2418.1724
225,3,True,right,approach,neg,insect1_crop.jpg,3,23,1.0,224.0,2,2657.568,43.0,23.0,DON'T EAT                                    EAT,2656.892,2644.7986,2418.1724
226,3,False,right,avoid,neg,fungus3_crop.jpg,3,23,1.0,225.0,1,2659.6313,43.0,23.0,DON'T EAT                                    EAT,2658.9104,2644.7986,2418.1724
227,3,False,right,avoid,neg,fungus30_crop.jpg,3,23,1.0,226.0,1,2661.7102,43.0,23.0,DON'T EAT                                    EAT,2660.9287,2644.7986,2418.1724
228,3,False,right,avoid,neg,fungus36_crop.jpg,3,23,1.0,227.0,1,2663.6572,43.0,23.0,DON'T EAT                                    EAT,2662.947,2644.7986,2418.1724
229,3,False,right,avoid,neg,fungus18_crop.jpg,3,23,1.0,228.0,1,2665.5781,43.0,23.0,DON'T EAT                                    EAT,2664.965,2644.7986,2418.1724
230,3,False,right,avoid,neg,fungus16_crop.jpg,3,23,1.0,229.0,1,2668.138,43.0,23.0,DON'T EAT                                    EAT,2666.9836,2644.7986,2418.1724
231,2,False,right,avoid,pos,meat24_crop.jpg,3,24,1.0,230.0,1,2684.8877,43.0,24.0,DON'T EAT                                    EAT,2684.0312,2680.0112,2418.1724
232,2,False,right,avoid,pos,meat34_crop.jpg,3,24,1.0,231.0,1,2686.791,43.0,24.0,DON'T EAT                                    EAT,2686.0496,2680.0112,2418.1724
233,2,True,right,approach,pos,cake9_crop.jpg,3,24,1.0,232.0,2,2688.84,43.0,24.0,DON'T EAT                                    EAT,2688.068,2680.0112,2418.1724
234,2,False,right,avoid,pos,meat20_crop.jpg,3,24,1.0,233.0,1,2690.7844,43.0,24.0,DON'T EAT                                    EAT,2690.0864,2680.0112,2418.1724
235,2,False,right,avoid,pos,meat15_crop.jpg,3,24,1.0,234.0,1,2692.8088,43.0,24.0,DON'T EAT                                    EAT,2692.1047,2680.0112,2418.1724
236,2,True,right,approach,neg,insect5_crop.jpg,3,24,1.0,235.0,2,2694.758,43.0,24.0,DON'T EAT                                    EAT,2694.123,2680.0112,2418.1724
237,2,False,right,avoid,pos,meat10_crop.jpg,3,24,1.0,236.0,1,2696.852,43.0,24.0,DON'T EAT                                    EAT,2696.141,2680.0112,2418.1724
238,2,False,right,avoid,pos,meat32_crop.jpg,3,24,1.0,237.0,1,2698.8665,43.0,24.0,DON'T EAT                                    EAT,2698.1597,2680.0112,2418.1724
239,2,False,right,avoid,pos,meat35_crop.jpg,3,24,1.0,238.0,1,2700.9746,43.0,24.0,DON'T EAT                                    EAT,2700.178,2680.0112,2418.1724
240,2,False,right,avoid,pos,meat25_crop.jpg,3,24,1.0,239.0,1,2702.9558,43.0,24.0,DON'T EAT                                    EAT,2702.1965,2680.0112,2418.1724
241,0,False,right,avoid,neg,fungus33_crop.jpg,4,25,1.0,240.0,1,2806.9558,43.0,25.0,DON'T EAT                                    EAT,2806.2156,2802.1963,2788.7556
242,0,False,right,avoid,neg,fungus14_crop.jpg,4,25,1.0,241.0,1,2808.8179,43.0,25.0,DON'T EAT                                    EAT,2808.2346,2802.1963,2788.7556
243,0,False,right,avoid,neg,fungus10_crop.jpg,4,25,1.0,242.0,1,2810.91,43.0,25.0,DON'T EAT                                    EAT,2810.253,2802.1963,2788.7556
244,0,False,right,avoid,neg,fungus8_crop.jpg,4,25,1.0,243.0,1,2812.8547,43.0,25.0,DON'T EAT                                    EAT,2812.2712,2802.1963,2788.7556
245,0,True,right,approach,neg,insect20_crop.jpg,4,25,1.0,244.0,2,2815.2559,43.0,25.0,DON'T EAT                                    EAT,2814.2896,2802.1963,2788.7556
246,0,False,right,avoid,neg,fungus28_crop.jpg,4,25,1.0,245.0,1,2816.9834,43.0,25.0,DON'T EAT                                    EAT,2816.3074,2802.1963,2788.7556
247,0,True,right,approach,pos,cake19_crop.jpg,4,25,1.0,246.0,2,2819.1729,43.0,25.0,DON'T EAT                                    EAT,2818.3262,2802.1963,2788.7556
248,0,False,right,avoid,neg,fungus5_crop.jpg,4,25,1.0,247.0,1,2821.046,43.0,25.0,DON'T EAT                                    EAT,2820.3445,2802.1963,2788.7556
249,0,False,right,avoid,neg,fungus6_crop.jpg,4,25,1.0,248.0,1,2822.951,43.0,25.0,DON'T EAT                                    EAT,2822.3628,2802.1963,2788.7556
250,0,False,right,avoid,neg,fungus31_crop.jpg,4,25,1.0,249.0,1,2824.9734,43.0,25.0,DON'T EAT                                    EAT,2824.381,2802.1963,2788.7556
251,3,True,right,approach,neg,insect38_crop.jpg,4,26,1.0,250.0,2,2842.2195,43.0,26.0,DON'T EAT                                    EAT,2841.3953,2837.375,2788.7556
252,3,False,right,avoid,pos,meat3_crop.jpg,4,26,1.0,251.0,1,2844.5364,43.0,26.0,DON'T EAT                                    EAT,2843.4138,2837.375,2788.7556
253,3,False,right,avoid,pos,meat22_crop.jpg,4,26,1.0,252.0,1,2846.174,43.0,26.0,DON'T EAT                                    EAT,2845.432,2837.375,2788.7556
254,3,False,right,avoid,pos,meat13_crop.jpg,4,26,1.0,253.0,1,2848.139,43.0,26.0,DON'T EAT                                    EAT,2847.4504,2837.375,2788.7556
255,3,False,right,avoid,pos,meat33_crop.jpg,4,26,1.0,254.0,1,2850.472,43.0,26.0,DON'T EAT                                    EAT,2849.4688,2837.375,2788.7556
256,3,False,right,avoid,pos,meat14_crop.jpg,4,26,1.0,255.0,1,2852.1877,43.0,26.0,DON'T EAT                                    EAT,2851.4866,2837.375,2788.7556
257,3,True,right,approach,pos,cake31_crop.jpg,4,26,1.0,256.0,2,2854.4348,43.0,26.0,DON'T EAT                                    EAT,2853.5054,2837.375,2788.7556
258,3,False,right,avoid,pos,meat38_crop.jpg,4,26,1.0,257.0,1,2856.2556,43.0,26.0,DON'T EAT                                    EAT,2855.524,2837.375,2788.7556
259,3,False,right,avoid,pos,meat7_crop.jpg,4,26,1.0,258.0,1,2858.1638,43.0,26.0,DON'T EAT                                    EAT,2857.542,2837.375,2788.7556
260,3,False,right,avoid,pos,meat11_crop.jpg,4,26,1.0,259.0,1,2860.2473,43.0,26.0,DON'T EAT                                    EAT,2859.5605,2837.375,2788.7556
261,2,True,left,approach,neg,insect7_crop.jpg,4,27,1.0,260.0,2,2880.2727,43.0,27.0,DON'T EAT                                    EAT,2879.477,2875.457,2788.7556
262,2,False,left,avoid,pos,meat25_crop.jpg,4,27,1.0,261.0,1,2882.49,43.0,27.0,DON'T EAT                                    EAT,2881.4954,2875.457,2788.7556
263,2,False,left,avoid,pos,meat21_crop.jpg,4,27,1.0,262.0,1,2884.1934,43.0,27.0,DON'T EAT                                    EAT,2883.5137,2875.457,2788.7556
264,2,False,left,avoid,pos,meat24_crop.jpg,4,27,1.0,263.0,1,2886.2314,43.0,27.0,DON'T EAT                                    EAT,2885.532,2875.457,2788.7556
265,2,False,left,avoid,pos,meat3_crop.jpg,4,27,1.0,264.0,1,2888.3623,43.0,27.0,DON'T EAT                                    EAT,2887.5503,2875.457,2788.7556
266,2,False,left,avoid,pos,meat32_crop.jpg,4,27,1.0,265.0,1,2890.286,43.0,27.0,DON'T EAT                                    EAT,2889.5684,2875.457,2788.7556
267,2,False,left,avoid,pos,meat39_crop.jpg,4,27,1.0,266.0,1,2893.116,43.0,27.0,DON'T EAT                                    EAT,2891.587,2875.457,2788.7556
268,2,False,left,avoid,pos,meat10_crop.jpg,4,27,1.0,267.0,1,2894.4924,43.0,27.0,DON'T EAT                                    EAT,2893.6055,2875.457,2788.7556
269,2,True,left,approach,pos,cake33_crop.jpg,4,27,1.0,268.0,2,2896.4912,43.0,27.0,DON'T EAT                                    EAT,2895.6238,2875.457,2788.7556
270,2,False,left,avoid,pos,meat18_crop.jpg,4,27,1.0,269.0,1,2898.4678,43.0,27.0,DON'T EAT                                    EAT,2897.642,2875.457,2788.7556
271,1,False,right,approach,pos,cake37_crop.jpg,4,28,1.0,270.0,2,2918.0422,43.0,28.0,DON'T EAT                                    EAT,2917.2078,2913.1882,2788.7556
272,1,True,right,avoid,neg,fungus34_crop.jpg,4,28,1.0,271.0,1,2920.0425,43.0,28.0,DON'T EAT                                    EAT,2919.2266,2913.1882,2788.7556
273,1,True,right,avoid,pos,meat23_crop.jpg,4,28,1.0,272.0,1,2922.123,43.0,28.0,DON'T EAT                                    EAT,2921.245,2913.1882,2788.7556
274,1,False,right,approach,pos,cake32_crop.jpg,4,28,1.0,273.0,2,2924.1465,43.0,28.0,DON'T EAT                                    EAT,2923.2634,2913.1882,2788.7556
275,1,False,right,approach,pos,cake27_crop.jpg,4,28,1.0,274.0,2,2926.076,43.0,28.0,DON'T EAT                                    EAT,2925.2817,2913.1882,2788.7556
276,1,False,right,approach,pos,cake25_crop.jpg,4,28,1.0,275.0,2,2928.07,43.0,28.0,DON'T EAT                                    EAT,2927.2996,2913.1882,2788.7556
277,1,False,right,approach,pos,cake17_crop.jpg,4,28,1.0,276.0,2,2930.0354,43.0,28.0,DON'T EAT                                    EAT,2929.3184,2913.1882,2788.7556
278,1,False,right,approach,pos,cake29_crop.jpg,4,28,1.0,277.0,2,2932.0085,43.0,28.0,DON'T EAT                                    EAT,2931.3367,2913.1882,2788.7556
279,1,False,right,approach,pos,cake21_crop.jpg,4,28,1.0,278.0,2,2934.0332,43.0,28.0,DON'T EAT                                    EAT,2933.3552,2913.1882,2788.7556
280,1,False,right,approach,pos,cake18_crop.jpg,4,28,1.0,279.0,2,2936.2832,43.0,28.0,DON'T EAT                                    EAT,2935.3735,2913.1882,2788.7556
281,1,True,left,approach,pos,cake7_crop.jpg,4,29,1.0,280.0,2,2955.389,43.0,29.0,DON'T EAT                                    EAT,2954.5723,2950.5527,2788.7556
282,1,False,left,avoid,pos,meat40_crop.jpg,4,29,1.0,281.0,1,2957.2876,43.0,29.0,DON'T EAT                                    EAT,2956.5908,2950.5527,2788.7556
283,1,False,left,avoid,pos,meat38_crop.jpg,4,29,1.0,282.0,1,2959.2327,43.0,29.0,DON'T EAT                                    EAT,2958.6091,2950.5527,2788.7556
284,1,False,left,avoid,pos,meat11_crop.jpg,4,29,1.0,283.0,1,2961.8328,43.0,29.0,DON'T EAT                                    EAT,2960.6277,2950.5527,2788.7556
285,1,False,left,avoid,pos,meat12_crop.jpg,4,29,1.0,284.0,1,2963.3525,43.0,29.0,DON'T EAT                                    EAT,2962.6462,2950.5527,2788.7556
286,1,False,left,avoid,pos,meat35_crop.jpg,4,29,1.0,285.0,1,2965.481,43.0,29.0,DON'T EAT                                    EAT,2964.6646,2950.5527,2788.7556
287,1,False,left,avoid,pos,meat8_crop.jpg,4,29,1.0,286.0,1,2967.3489,43.0,29.0,DON'T EAT                                    EAT,2966.6829,2950.5527,2788.7556
288,1,False,left,avoid,pos,meat30_crop.jpg,4,29,1.0,287.0,1,2969.4722,43.0,29.0,DON'T EAT                                    EAT,2968.7007,2950.5527,2788.7556
289,1,True,left,approach,neg,insect5_crop.jpg,4,29,1.0,288.0,2,2971.5022,43.0,29.0,DON'T EAT                                    EAT,2970.7195,2950.5527,2788.7556
290,1,False,left,avoid,pos,meat29_crop.jpg,4,29,1.0,289.0,1,2973.5544,43.0,29.0,DON'T EAT                                    EAT,2972.7378,2950.5527,2788.7556
291,3,False,left,approach,neg,insect12_crop.jpg,4,30,1.0,290.0,2,2991.5037,43.0,30.0,DON'T EAT                                    EAT,2990.8022,2986.7827,2788.7556
292,3,False,left,approach,neg,insect10_crop.jpg,4,30,1.0,291.0,2,2993.3423,43.0,30.0,DON'T EAT                                    EAT,2992.8208,2986.7827,2788.7556
293,3,False,left,approach,neg,insect17_crop.jpg,4,30,1.0,292.0,2,2995.4868,43.0,30.0,DON'T EAT                                    EAT,2994.8396,2986.7827,2788.7556
294,3,False,left,approach,neg,insect26_crop.jpg,4,30,1.0,293.0,2,2997.4705,43.0,30.0,DON'T EAT                                    EAT,2996.8577,2986.7827,2788.7556
295,3,True,left,avoid,pos,meat31_crop.jpg,4,30,1.0,294.0,1,2999.563,43.0,30.0,DON'T EAT                                    EAT,2998.8762,2986.7827,2788.7556
296,3,False,left,approach,neg,insect34_crop.jpg,4,30,1.0,295.0,2,3001.5828,43.0,30.0,DON'T EAT                                    EAT,3000.8945,2986.7827,2788.7556
297,3,False,left,approach,neg,insect4_crop.jpg,4,30,1.0,296.0,2,3003.6567,43.0,30.0,DON'T EAT                                    EAT,3002.9124,2986.7827,2788.7556
298,3,True,left,avoid,neg,fungus29_crop.jpg,4,30,1.0,297.0,1,3005.7363,43.0,30.0,DON'T EAT                                    EAT,3004.9312,2986.7827,2788.7556
299,3,False,left,approach,neg,insect25_crop.jpg,4,30,1.0,298.0,2,3007.6873,43.0,30.0,DON'T EAT                                    EAT,3006.9495,2986.7827,2788.7556
300,3,False,left,approach,neg,insect1_crop.jpg,4,30,1.0,299.0,2,3009.669,43.0,30.0,DON'T EAT                                    EAT,3008.9673,2986.7827,2788.7556
301,3,False,left,avoid,pos,meat22_crop.jpg,4,31,1.0,300.0,1,3028.1438,43.0,31.0,DON'T EAT                                    EAT,3027.3499,3023.3298,2788.7556
302,3,False,left,avoid,pos,meat33_crop.jpg,4,31,1.0,301.0,1,3030.2134,43.0,31.0,DON'T EAT                                    EAT,3029.3682,3023.3298,2788.7556
303,3,False,left,avoid,pos,meat23_crop.jpg,4,31,1.0,302.0,1,3032.0222,43.0,31.0,DON'T EAT                                    EAT,3031.3865,3023.3298,2788.7556
304,3,True,left,approach,neg,insect35_crop.jpg,4,31,1.0,303.0,2,3034.2222,43.0,31.0,DON'T EAT                                    EAT,3033.4048,3023.3298,2788.7556
305,3,False,left,avoid,pos,meat20_crop.jpg,4,31,1.0,304.0,1,3036.1313,43.0,31.0,DON'T EAT                                    EAT,3035.423,3023.3298,2788.7556
306,3,False,left,avoid,pos,meat9_crop.jpg,4,31,1.0,305.0,1,3038.3857,43.0,31.0,DON'T EAT                                    EAT,3037.4412,3023.3298,2788.7556
307,3,False,left,avoid,pos,meat37_crop.jpg,4,31,1.0,306.0,1,3040.1575,43.0,31.0,DON'T EAT                                    EAT,3039.4597,3023.3298,2788.7556
308,3,False,left,avoid,pos,meat28_crop.jpg,4,31,1.0,307.0,1,3042.1548,43.0,31.0,DON'T EAT                                    EAT,3041.4783,3023.3298,2788.7556
309,3,False,left,avoid,pos,meat6_crop.jpg,4,31,1.0,308.0,1,3044.1858,43.0,31.0,DON'T EAT                                    EAT,3043.4966,3023.3298,2788.7556
310,3,True,left,approach,pos,cake15_crop.jpg,4,31,1.0,309.0,2,3046.274,43.0,31.0,DON'T EAT                                    EAT,3045.5146,3023.3298,2788.7556
311,0,False,left,approach,pos,cake28_crop.jpg,4,32,1.0,310.0,2,3066.2314,43.0,32.0,DON'T EAT                                    EAT,3065.4814,3061.4614,2788.7556
312,0,False,left,approach,pos,cake29_crop.jpg,4,32,1.0,311.0,2,3068.1467,43.0,32.0,DON'T EAT                                    EAT,3067.4993,3061.4614,2788.7556
313,0,False,left,approach,pos,cake23_crop.jpg,4,32,1.0,312.0,2,3070.1667,43.0,32.0,DON'T EAT                                    EAT,3069.5176,3061.4614,2788.7556
314,0,False,left,approach,pos,cake18_crop.jpg,4,32,1.0,313.0,2,3072.1628,43.0,32.0,DON'T EAT                                    EAT,3071.5366,3061.4614,2788.7556
315,0,False,left,approach,pos,cake21_crop.jpg,4,32,1.0,314.0,2,3074.191,43.0,32.0,DON'T EAT                                    EAT,3073.555,3061.4614,2788.7556
316,0,True,left,avoid,neg,fungus17_crop.jpg,4,32,1.0,315.0,1,3076.2817,43.0,32.0,DON'T EAT                                    EAT,3075.5732,3061.4614,2788.7556
317,0,False,left,approach,pos,cake13_crop.jpg,4,32,1.0,316.0,2,3078.2266,43.0,32.0,DON'T EAT                                    EAT,3077.5913,3061.4614,2788.7556
318,0,False,left,approach,pos,cake31_crop.jpg,4,32,1.0,317.0,2,3080.3499,43.0,32.0,DON'T EAT                                    EAT,3079.61,3061.4614,2788.7556
319,0,False,left,approach,pos,cake9_crop.jpg,4,32,1.0,318.0,2,3082.284,43.0,32.0,DON'T EAT                                    EAT,3081.6282,3061.4614,2788.7556
320,0,True,left,avoid,pos,meat17_crop.jpg,4,32,1.0,319.0,1,3084.3977,43.0,32.0,DON'T EAT                                    EAT,3083.6465,3061.4614,2788.7556
