subject,trial_number,n_block,catch,hand,mot,val,stim_name,run_number,num_block,ran,order,response,time_of_response,subject_number,left_side_resp_label,trial_onset,blk_instr_onset,baseline_onset,response_hand,response_cleaned,response_lat,response_lat_cleaned,response_meaning,response_meaning_cleaned,condition_mot,condition_val,condition,correct,correct_cleaned,rt
sub-081,1,1,FALSE,right,approach,neg,insect37_crop.jpg,1,1,TRUE,0,2,1409.2603,81,DON'T EAT                                    EAT,1407.8262,1403.8062,1390.9888,left,2,right,right,eat,eat,approach,neg,approach-neg,1,1,1434.0999999998603
sub-081,2,1,FALSE,right,approach,neg,insect18_crop.jpg,1,1,TRUE,1,2,1410.6212,81,DON'T EAT                                    EAT,1409.8445,1403.8062,1390.9888,left,2,right,right,eat,eat,approach,neg,approach-neg,1,1,776.6999999999534
sub-081,3,1,FALSE,right,approach,neg,insect26_crop.jpg,1,1,TRUE,2,2,1412.4968,81,DON'T EAT                                    EAT,1411.8624,1403.8062,1390.9888,left,2,right,right,eat,eat,approach,neg,approach-neg,1,1,634.3999999999069
sub-081,4,1,FALSE,right,approach,neg,insect14_crop.jpg,1,1,TRUE,3,2,1414.5347,81,DON'T EAT                                    EAT,1413.8838,1403.8062,1390.9888,left,2,right,right,eat,eat,approach,neg,approach-neg,1,1,650.8999999999069
sub-081,5,1,FALSE,right,approach,neg,insect3_crop.jpg,1,1,TRUE,4,2,1416.8859,81,DON'T EAT                                    EAT,1415.9015,1403.8062,1390.9888,left,2,right,right,eat,eat,approach,neg,approach-neg,1,1,984.3999999999069
sub-081,6,1,FALSE,right,approach,neg,insect35_crop.jpg,1,1,TRUE,5,2,1418.6602,81,DON'T EAT                                    EAT,1417.918,1403.8062,1390.9888,left,2,right,right,eat,eat,approach,neg,approach-neg,1,1,742.1999999999534
sub-081,7,1,FALSE,right,approach,neg,insect13_crop.jpg,1,1,TRUE,6,2,1420.6499,81,DON'T EAT                                    EAT,1419.9358,1403.8062,1390.9888,left,2,right,right,eat,eat,approach,neg,approach-neg,1,1,714.0999999998603
sub-081,8,1,TRUE,right,avoid,pos,meat38_crop.jpg,1,1,TRUE,7,1,1423.0406,81,DON'T EAT                                    EAT,1421.9541,1403.8062,1390.9888,left,1,left,left,not_eat,not_eat,approach,neg,approach-neg,1,1,1086.5000000002328
sub-081,9,1,TRUE,right,avoid,neg,fungus39_crop.jpg,1,1,TRUE,8,1,1425.0635,81,DON'T EAT                                    EAT,1423.973,1403.8062,1390.9888,left,1,left,left,not_eat,not_eat,approach,neg,approach-neg,1,1,1090.5
sub-081,10,1,FALSE,right,approach,neg,insect11_crop.jpg,1,1,TRUE,9,2,1426.6084,81,DON'T EAT                                    EAT,1425.9911,1403.8062,1390.9888,left,2,right,right,eat,eat,approach,neg,approach-neg,1,1,617.3000000002794
sub-081,11,0,FALSE,right,avoid,neg,fungus21_crop.jpg,1,2,TRUE,10,1,1446.1947,81,DON'T EAT                                    EAT,1444.6229,1440.6034,1390.9888,left,1,left,left,not_eat,not_eat,avoid,neg,avoid-neg,1,1,1571.7999999998137
sub-081,12,0,TRUE,right,approach,neg,insect8_crop.jpg,1,2,TRUE,11,2,1447.4487,81,DON'T EAT                                    EAT,1446.6417,1440.6034,1390.9888,left,2,right,right,eat,eat,avoid,neg,avoid-neg,1,1,807
sub-081,13,0,FALSE,right,avoid,neg,fungus8_crop.jpg,1,2,TRUE,12,1,1449.7388,81,DON'T EAT                                    EAT,1448.66,1440.6034,1390.9888,left,1,left,left,not_eat,not_eat,avoid,neg,avoid-neg,1,1,1078.8000000000466
sub-081,14,0,FALSE,right,avoid,neg,fungus3_crop.jpg,1,2,TRUE,13,1,1451.4861,81,DON'T EAT                                    EAT,1450.6785,1440.6034,1390.9888,left,1,left,left,not_eat,not_eat,avoid,neg,avoid-neg,1,1,807.6000000000931
sub-081,15,0,FALSE,right,avoid,neg,fungus25_crop.jpg,1,2,TRUE,14,1,1453.535,81,DON'T EAT                                    EAT,1452.6968,1440.6034,1390.9888,left,1,left,left,not_eat,not_eat,avoid,neg,avoid-neg,1,1,838.1999999999534
sub-081,16,0,FALSE,right,avoid,neg,fungus32_crop.jpg,1,2,TRUE,15,1,1455.5221,81,DON'T EAT                                    EAT,1454.7151,1440.6034,1390.9888,left,1,left,left,not_eat,not_eat,avoid,neg,avoid-neg,1,1,807
sub-081,17,0,TRUE,right,approach,pos,cake4_crop.jpg,1,2,TRUE,16,2,1457.562,81,DON'T EAT                                    EAT,1456.7336,1440.6034,1390.9888,left,2,right,right,eat,eat,avoid,neg,avoid-neg,1,1,828.3999999999069
sub-081,18,0,FALSE,right,avoid,neg,fungus9_crop.jpg,1,2,TRUE,17,1,1459.5042,81,DON'T EAT                                    EAT,1458.752,1440.6034,1390.9888,left,1,left,left,not_eat,not_eat,avoid,neg,avoid-neg,1,1,752.2000000001863
sub-081,19,0,FALSE,right,avoid,neg,fungus16_crop.jpg,1,2,TRUE,18,1,1461.5543,81,DON'T EAT                                    EAT,1460.7701,1440.6034,1390.9888,left,1,left,left,not_eat,not_eat,avoid,neg,avoid-neg,1,1,784.2000000001863
sub-081,20,0,FALSE,right,avoid,neg,fungus6_crop.jpg,1,2,TRUE,19,1,1463.512,81,DON'T EAT                                    EAT,1462.7887,1440.6034,1390.9888,left,1,left,left,not_eat,not_eat,avoid,neg,avoid-neg,1,1,723.3000000000466
sub-081,21,1,FALSE,right,avoid,neg,fungus4_crop.jpg,1,3,TRUE,20,1,1483.4695,81,DON'T EAT                                    EAT,1482.6716,1478.6516,1390.9888,left,1,left,left,not_eat,not_eat,avoid,neg,avoid-neg,1,1,797.9000000001397
sub-081,22,1,FALSE,right,avoid,neg,fungus29_crop.jpg,1,3,TRUE,21,1,1485.4749,81,DON'T EAT                                    EAT,1484.6901,1478.6516,1390.9888,left,1,left,left,not_eat,not_eat,avoid,neg,avoid-neg,1,1,784.7999999998137
sub-081,23,1,FALSE,right,avoid,neg,fungus13_crop.jpg,1,3,TRUE,22,1,1487.462,81,DON'T EAT                                    EAT,1486.7085,1478.6516,1390.9888,left,1,left,left,not_eat,not_eat,avoid,neg,avoid-neg,1,1,753.5
sub-081,24,1,FALSE,right,avoid,neg,fungus35_crop.jpg,1,3,TRUE,23,1,1489.4398,81,DON'T EAT                                    EAT,1488.7269,1478.6516,1390.9888,left,1,left,left,not_eat,not_eat,avoid,neg,avoid-neg,1,1,712.9000000001397
sub-081,25,1,FALSE,right,avoid,neg,fungus15_crop.jpg,1,3,TRUE,24,1,1491.3638,81,DON'T EAT                                    EAT,1490.745,1478.6516,1390.9888,left,1,left,left,not_eat,not_eat,avoid,neg,avoid-neg,1,1,618.8000000000466
sub-081,26,1,FALSE,right,avoid,neg,fungus5_crop.jpg,1,3,TRUE,25,1,1493.5288,81,DON'T EAT                                    EAT,1492.7634,1478.6516,1390.9888,left,1,left,left,not_eat,not_eat,avoid,neg,avoid-neg,1,1,765.3999999999069
sub-081,27,1,FALSE,right,avoid,neg,fungus1_crop.jpg,1,3,TRUE,26,1,1495.3586,81,DON'T EAT                                    EAT,1494.7816,1478.6516,1390.9888,left,1,left,left,not_eat,not_eat,avoid,neg,avoid-neg,1,1,577
sub-081,28,1,TRUE,right,approach,pos,cake24_crop.jpg,1,3,TRUE,27,2,1497.7798,81,DON'T EAT                                    EAT,1496.8,1478.6516,1390.9888,left,2,right,right,eat,eat,avoid,neg,avoid-neg,1,1,979.8000000000466
sub-081,29,1,FALSE,right,avoid,neg,fungus31_crop.jpg,1,3,TRUE,28,1,1499.6455,81,DON'T EAT                                    EAT,1498.8186,1478.6516,1390.9888,left,1,left,left,not_eat,not_eat,avoid,neg,avoid-neg,1,1,826.8999999999069
sub-081,30,1,TRUE,right,approach,neg,insect25_crop.jpg,1,3,TRUE,29,2,1501.706,81,DON'T EAT                                    EAT,1500.8369,1478.6516,1390.9888,left,2,right,right,eat,eat,avoid,neg,avoid-neg,1,1,869.1000000000931
sub-081,31,1,FALSE,left,avoid,neg,fungus2_crop.jpg,1,4,TRUE,30,1,1518.7295,81,DON'T EAT                                    EAT,1517.9343,1513.9143,1390.9888,left,1,left,left,not_eat,not_eat,avoid,neg,avoid-neg,1,1,795.2000000001863
sub-081,32,1,FALSE,left,avoid,neg,fungus19_crop.jpg,1,4,TRUE,31,1,1520.4937,81,DON'T EAT                                    EAT,1519.9523,1513.9143,1390.9888,left,1,left,left,not_eat,not_eat,avoid,neg,avoid-neg,1,1,541.4000000001397
sub-081,33,1,FALSE,left,avoid,neg,fungus10_crop.jpg,1,4,TRUE,32,1,1522.5928,81,DON'T EAT                                    EAT,1521.9706,1513.9143,1390.9888,left,1,left,left,not_eat,not_eat,avoid,neg,avoid-neg,1,1,622.1999999997206
sub-081,34,1,TRUE,left,approach,neg,insect38_crop.jpg,1,4,TRUE,33,2,1524.7113,81,DON'T EAT                                    EAT,1523.9895,1513.9143,1390.9888,left,2,right,right,eat,eat,avoid,neg,avoid-neg,1,1,721.8000000000466
sub-081,35,1,FALSE,left,avoid,neg,fungus5_crop.jpg,1,4,TRUE,34,1,1526.8872,81,DON'T EAT                                    EAT,1526.0078,1513.9143,1390.9888,left,1,left,left,not_eat,not_eat,avoid,neg,avoid-neg,1,1,879.3999999999069
sub-081,36,1,FALSE,left,avoid,neg,fungus25_crop.jpg,1,4,TRUE,35,1,1528.7504,81,DON'T EAT                                    EAT,1528.0261,1513.9143,1390.9888,left,1,left,left,not_eat,not_eat,avoid,neg,avoid-neg,1,1,724.2999999998137
sub-081,37,1,FALSE,left,avoid,neg,fungus21_crop.jpg,1,4,TRUE,36,1,1530.6218,81,DON'T EAT                                    EAT,1530.0444,1513.9143,1390.9888,left,1,left,left,not_eat,not_eat,avoid,neg,avoid-neg,1,1,577.3999999999069
sub-081,38,1,TRUE,left,approach,pos,cake38_crop.jpg,1,4,TRUE,37,2,1532.9281,81,DON'T EAT                                    EAT,1532.0623,1513.9143,1390.9888,left,2,right,right,eat,eat,avoid,neg,avoid-neg,1,1,865.8000000000466
sub-081,39,1,FALSE,left,avoid,neg,fungus13_crop.jpg,1,4,TRUE,38,1,1534.7516,81,DON'T EAT                                    EAT,1534.081,1513.9143,1390.9888,left,1,left,left,not_eat,not_eat,avoid,neg,avoid-neg,1,1,670.6000000000931
sub-081,40,1,FALSE,left,avoid,neg,fungus29_crop.jpg,1,4,TRUE,39,1,1536.7478,81,DON'T EAT                                    EAT,1536.0994,1513.9143,1390.9888,left,1,left,left,not_eat,not_eat,avoid,neg,avoid-neg,1,1,648.3999999999069
sub-081,41,2,FALSE,left,avoid,pos,meat4_crop.jpg,1,5,TRUE,40,1,1555.7172,81,DON'T EAT                                    EAT,1554.5648,1550.5446,1390.9888,left,1,left,left,not_eat,not_eat,avoid,pos,avoid-pos,1,1,1152.3999999999069
sub-081,42,2,FALSE,left,avoid,pos,meat34_crop.jpg,1,5,TRUE,41,1,1558.4955,81,DON'T EAT                                    EAT,1556.583,1550.5446,1390.9888,left,1,left,left,not_eat,not_eat,avoid,pos,avoid-pos,1,1,1912.5
sub-081,43,2,FALSE,left,avoid,pos,meat5_crop.jpg,1,5,TRUE,42,1,1559.6714,81,DON'T EAT                                    EAT,1558.6014,1550.5446,1390.9888,left,1,left,left,not_eat,not_eat,avoid,pos,avoid-pos,1,1,1070
sub-081,44,2,FALSE,left,avoid,pos,meat20_crop.jpg,1,5,TRUE,43,1,1561.4059,81,DON'T EAT                                    EAT,1560.62,1550.5446,1390.9888,left,1,left,left,not_eat,not_eat,avoid,pos,avoid-pos,1,1,785.8999999999069
sub-081,45,2,FALSE,left,avoid,pos,meat40_crop.jpg,1,5,TRUE,44,1,1563.3818,81,DON'T EAT                                    EAT,1562.6383,1550.5446,1390.9888,left,1,left,left,not_eat,not_eat,avoid,pos,avoid-pos,1,1,743.5
sub-081,46,2,TRUE,left,approach,neg,insect26_crop.jpg,1,5,TRUE,45,2,1565.4529,81,DON'T EAT                                    EAT,1564.6566,1550.5446,1390.9888,left,2,right,right,eat,eat,avoid,pos,avoid-pos,1,1,796.2999999998137
sub-081,47,2,FALSE,left,avoid,pos,meat3_crop.jpg,1,5,TRUE,46,1,1567.5553,81,DON'T EAT                                    EAT,1566.6749,1550.5446,1390.9888,left,1,left,left,not_eat,not_eat,avoid,pos,avoid-pos,1,1,880.4000000001397
sub-081,48,2,FALSE,left,avoid,pos,meat33_crop.jpg,1,5,TRUE,47,1,1569.5416,81,DON'T EAT                                    EAT,1568.6932,1550.5446,1390.9888,left,1,left,left,not_eat,not_eat,avoid,pos,avoid-pos,1,1,848.4000000001397
sub-081,49,2,FALSE,left,avoid,pos,meat26_crop.jpg,1,5,TRUE,48,1,1571.3828,81,DON'T EAT                                    EAT,1570.7117,1550.5446,1390.9888,left,1,left,left,not_eat,not_eat,avoid,pos,avoid-pos,1,1,671.1000000000931
sub-081,50,2,TRUE,left,approach,pos,cake25_crop.jpg,1,5,TRUE,49,2,1573.4419,81,DON'T EAT                                    EAT,1572.73,1550.5446,1390.9888,left,2,right,right,eat,eat,avoid,pos,avoid-pos,1,1,711.9000000001397
sub-081,51,2,FALSE,left,approach,neg,insect39_crop.jpg,1,6,TRUE,50,2,1591.3776,81,DON'T EAT                                    EAT,1590.278,1586.2579,1390.9888,left,2,right,right,eat,eat,approach,neg,approach-neg,1,1,1099.6000000000931
sub-081,52,2,FALSE,left,approach,neg,insect31_crop.jpg,1,6,TRUE,51,2,1592.9324,81,DON'T EAT                                    EAT,1592.2959,1586.2579,1390.9888,left,2,right,right,eat,eat,approach,neg,approach-neg,1,1,636.4999999997672
sub-081,53,2,FALSE,left,approach,neg,insect29_crop.jpg,1,6,TRUE,52,2,1595.0466,81,DON'T EAT                                    EAT,1594.3146,1586.2579,1390.9888,left,2,right,right,eat,eat,approach,neg,approach-neg,1,1,732
sub-081,54,2,FALSE,left,approach,neg,insect23_crop.jpg,1,6,TRUE,53,2,1596.9924,81,DON'T EAT                                    EAT,1596.333,1586.2579,1390.9888,left,2,right,right,eat,eat,approach,neg,approach-neg,1,1,659.4000000001397
sub-081,55,2,TRUE,left,avoid,neg,fungus24_crop.jpg,1,6,TRUE,54,1,1598.9899,81,DON'T EAT                                    EAT,1598.3511,1586.2579,1390.9888,left,1,left,left,not_eat,not_eat,approach,neg,approach-neg,1,1,638.8000000000466
sub-081,56,2,FALSE,left,approach,neg,insect8_crop.jpg,1,6,TRUE,55,2,1601.0189,81,DON'T EAT                                    EAT,1600.3698,1586.2579,1390.9888,left,2,right,right,eat,eat,approach,neg,approach-neg,1,1,649.1000000000931
sub-081,57,2,TRUE,left,avoid,pos,meat27_crop.jpg,1,6,TRUE,56,1,1603.0985,81,DON'T EAT                                    EAT,1602.3873,1586.2579,1390.9888,left,1,left,left,not_eat,not_eat,approach,neg,approach-neg,1,1,711.1999999999534
sub-081,58,2,FALSE,left,approach,neg,insect7_crop.jpg,1,6,TRUE,57,2,1605.1511,81,DON'T EAT                                    EAT,1604.4064,1586.2579,1390.9888,left,2,right,right,eat,eat,approach,neg,approach-neg,1,1,744.6999999999534
sub-081,59,2,FALSE,left,approach,neg,insect3_crop.jpg,1,6,TRUE,58,2,1607.1904,81,DON'T EAT                                    EAT,1606.4247,1586.2579,1390.9888,left,2,right,right,eat,eat,approach,neg,approach-neg,1,1,765.6999999999534
sub-081,60,2,FALSE,left,approach,neg,insect32_crop.jpg,1,6,TRUE,59,2,1609.0824,81,DON'T EAT                                    EAT,1608.443,1586.2579,1390.9888,left,2,right,right,eat,eat,approach,neg,approach-neg,1,1,639.3999999999069
sub-081,61,0,FALSE,left,approach,pos,cake19_crop.jpg,1,7,TRUE,60,2,1629.2655,81,DON'T EAT                                    EAT,1628.3762,1624.3562,1390.9888,left,2,right,right,eat,eat,approach,pos,approach-pos,1,1,889.3000000000466
sub-081,62,0,TRUE,left,avoid,neg,fungus3_crop.jpg,1,7,TRUE,61,1,1631.1814,81,DON'T EAT                                    EAT,1630.3947,1624.3562,1390.9888,left,1,left,left,not_eat,not_eat,approach,pos,approach-pos,1,1,786.6999999999534
sub-081,63,0,FALSE,left,approach,pos,cake28_crop.jpg,1,7,TRUE,62,2,1633.1573,81,DON'T EAT                                    EAT,1632.4124,1624.3562,1390.9888,left,2,right,right,eat,eat,approach,pos,approach-pos,1,1,744.9000000001397
sub-081,64,0,FALSE,left,approach,pos,cake17_crop.jpg,1,7,TRUE,63,2,1635.0887,81,DON'T EAT                                    EAT,1634.4312,1624.3562,1390.9888,left,2,right,right,eat,eat,approach,pos,approach-pos,1,1,657.5
sub-081,65,0,FALSE,left,approach,pos,cake32_crop.jpg,1,7,TRUE,64,2,1637.321,81,DON'T EAT                                    EAT,1636.4497,1624.3562,1390.9888,left,2,right,right,eat,eat,approach,pos,approach-pos,1,1,871.3000000000466
sub-081,66,0,FALSE,left,approach,pos,cake22_crop.jpg,1,7,TRUE,65,2,1639.2535,81,DON'T EAT                                    EAT,1638.468,1624.3562,1390.9888,left,2,right,right,eat,eat,approach,pos,approach-pos,1,1,785.5
sub-081,67,0,FALSE,left,approach,pos,cake1_crop.jpg,1,7,TRUE,66,2,1641.1263,81,DON'T EAT                                    EAT,1640.4863,1624.3562,1390.9888,left,2,right,right,eat,eat,approach,pos,approach-pos,1,1,639.9999999997672
sub-081,68,0,FALSE,left,approach,pos,cake11_crop.jpg,1,7,TRUE,67,2,1643.0905,81,DON'T EAT                                    EAT,1642.5043,1624.3562,1390.9888,left,2,right,right,eat,eat,approach,pos,approach-pos,1,1,586.1999999999534
sub-081,69,0,TRUE,left,avoid,pos,meat7_crop.jpg,1,7,TRUE,68,1,1645.2234,81,DON'T EAT                                    EAT,1644.523,1624.3562,1390.9888,left,1,left,left,not_eat,not_eat,approach,pos,approach-pos,1,1,700.4000000001397
sub-081,70,0,FALSE,left,approach,pos,cake40_crop.jpg,1,7,TRUE,69,2,1647.2328,81,DON'T EAT                                    EAT,1646.5411,1624.3562,1390.9888,left,2,right,right,eat,eat,approach,pos,approach-pos,1,1,691.7000000001863
sub-081,71,1,TRUE,left,avoid,pos,meat18_crop.jpg,1,8,TRUE,70,1,1666.6315,81,DON'T EAT                                    EAT,1665.6073,1661.5873,1390.9888,left,1,left,left,not_eat,not_eat,approach,neg,approach-neg,1,1,1024.2000000001863
sub-081,72,1,FALSE,left,approach,neg,insect2_crop.jpg,1,8,TRUE,71,2,1668.3385,81,DON'T EAT                                    EAT,1667.6256,1661.5873,1390.9888,left,2,right,right,eat,eat,approach,neg,approach-neg,1,1,712.8999999999069
sub-081,73,1,FALSE,left,approach,neg,insect11_crop.jpg,1,8,TRUE,72,2,1670.1858,81,DON'T EAT                                    EAT,1669.6434,1661.5873,1390.9888,left,2,right,right,eat,eat,approach,neg,approach-neg,1,1,542.4000000001397
sub-081,74,1,FALSE,left,approach,neg,insect22_crop.jpg,1,8,TRUE,73,2,1672.2369,81,DON'T EAT                                    EAT,1671.6622,1661.5873,1390.9888,left,2,right,right,eat,eat,approach,neg,approach-neg,1,1,574.7000000001863
sub-081,75,1,FALSE,left,approach,neg,insect33_crop.jpg,1,8,TRUE,74,2,1674.2358,81,DON'T EAT                                    EAT,1673.6803,1661.5873,1390.9888,left,2,right,right,eat,eat,approach,neg,approach-neg,1,1,555.4999999997672
sub-081,76,1,FALSE,left,approach,neg,insect15_crop.jpg,1,8,TRUE,75,2,1676.2849,81,DON'T EAT                                    EAT,1675.699,1661.5873,1390.9888,left,2,right,right,eat,eat,approach,neg,approach-neg,1,1,585.9000000001397
sub-081,77,1,FALSE,left,approach,neg,insect17_crop.jpg,1,8,TRUE,76,2,1678.2621,81,DON'T EAT                                    EAT,1677.7174,1661.5873,1390.9888,left,2,right,right,eat,eat,approach,neg,approach-neg,1,1,544.6999999999534
sub-081,78,1,FALSE,left,approach,neg,insect4_crop.jpg,1,8,TRUE,77,2,1680.3203,81,DON'T EAT                                    EAT,1679.7354,1661.5873,1390.9888,left,2,right,right,eat,eat,approach,neg,approach-neg,1,1,584.8999999999069
sub-081,79,1,FALSE,left,approach,neg,insect6_crop.jpg,1,8,TRUE,78,2,1682.318,81,DON'T EAT                                    EAT,1681.7539,1661.5873,1390.9888,left,2,right,right,eat,eat,approach,neg,approach-neg,1,1,564.1000000000931
sub-081,80,1,TRUE,left,avoid,neg,fungus28_crop.jpg,1,8,TRUE,79,1,1684.4324,81,DON'T EAT                                    EAT,1683.7722,1661.5873,1390.9888,left,1,left,left,not_eat,not_eat,approach,neg,approach-neg,1,1,660.1999999997206
sub-081,81,3,TRUE,right,approach,pos,cake14_crop.jpg,2,9,TRUE,80,2,1772.739,81,DON'T EAT                                    EAT,1771.8956,1767.8754,1755.5911,right,2,right,right,eat,eat,avoid,pos,avoid-pos,1,1,843.3999999999069
sub-081,82,3,FALSE,right,avoid,pos,meat17_crop.jpg,2,9,TRUE,81,1,1774.5428,81,DON'T EAT                                    EAT,1773.9135,1767.8754,1755.5911,right,1,left,left,not_eat,not_eat,avoid,pos,avoid-pos,1,1,629.3000000000466
sub-081,83,3,FALSE,right,avoid,pos,meat40_crop.jpg,2,9,TRUE,82,1,1776.5083,81,DON'T EAT                                    EAT,1775.9323,1767.8754,1755.5911,right,1,left,left,not_eat,not_eat,avoid,pos,avoid-pos,1,1,576
sub-081,84,3,FALSE,right,avoid,pos,meat13_crop.jpg,2,9,TRUE,83,1,1778.4758,81,DON'T EAT                                    EAT,1777.9508,1767.8754,1755.5911,right,1,left,left,not_eat,not_eat,avoid,pos,avoid-pos,1,1,525
sub-081,85,3,FALSE,right,avoid,pos,meat14_crop.jpg,2,9,TRUE,84,1,1780.7136,81,DON'T EAT                                    EAT,1779.9691,1767.8754,1755.5911,right,1,left,left,not_eat,not_eat,avoid,pos,avoid-pos,1,1,744.5
sub-081,86,3,FALSE,right,avoid,pos,meat5_crop.jpg,2,9,TRUE,85,1,1782.5166,81,DON'T EAT                                    EAT,1781.9869,1767.8754,1755.5911,right,1,left,left,not_eat,not_eat,avoid,pos,avoid-pos,1,1,529.6999999997206
sub-081,87,3,TRUE,right,approach,neg,insect31_crop.jpg,2,9,TRUE,86,2,1784.5612,81,DON'T EAT                                    EAT,1784.0056,1767.8754,1755.5911,right,2,right,right,eat,eat,avoid,pos,avoid-pos,1,1,555.600000000326
sub-081,88,3,FALSE,right,avoid,pos,meat35_crop.jpg,2,9,TRUE,87,1,1786.6213,81,DON'T EAT                                    EAT,1786.024,1767.8754,1755.5911,right,1,left,left,not_eat,not_eat,avoid,pos,avoid-pos,1,1,597.3000000000466
sub-081,89,3,FALSE,right,avoid,pos,meat39_crop.jpg,2,9,TRUE,88,1,1788.6599,81,DON'T EAT                                    EAT,1788.0424,1767.8754,1755.5911,right,1,left,left,not_eat,not_eat,avoid,pos,avoid-pos,1,1,617.5
sub-081,90,3,FALSE,right,avoid,pos,meat21_crop.jpg,2,9,TRUE,89,1,1790.702,81,DON'T EAT                                    EAT,1790.0605,1767.8754,1755.5911,right,1,left,left,not_eat,not_eat,avoid,pos,avoid-pos,1,1,641.5
sub-081,91,1,FALSE,left,avoid,pos,meat38_crop.jpg,2,10,TRUE,90,1,1808.7357,81,DON'T EAT                                    EAT,1807.9922,1803.9722,1755.5911,right,1,left,left,not_eat,not_eat,avoid,pos,avoid-pos,1,1,743.5
sub-081,92,1,FALSE,left,avoid,pos,meat21_crop.jpg,2,10,TRUE,91,1,1810.6196,81,DON'T EAT                                    EAT,1810.0106,1803.9722,1755.5911,right,1,left,left,not_eat,not_eat,avoid,pos,avoid-pos,1,1,609
sub-081,93,1,FALSE,left,avoid,pos,meat24_crop.jpg,2,10,TRUE,92,1,1812.6198,81,DON'T EAT                                    EAT,1812.0286,1803.9722,1755.5911,right,1,left,left,not_eat,not_eat,avoid,pos,avoid-pos,1,1,591.1999999999534
sub-081,94,1,TRUE,left,approach,pos,cake39_crop.jpg,2,10,TRUE,93,2,1814.6658,81,DON'T EAT                                    EAT,1814.0472,1803.9722,1755.5911,right,2,right,right,eat,eat,avoid,pos,avoid-pos,1,1,618.6000000000931
sub-081,95,1,TRUE,left,approach,neg,insect27_crop.jpg,2,10,TRUE,94,2,1816.6212,81,DON'T EAT                                    EAT,1816.0657,1803.9722,1755.5911,right,2,right,right,eat,eat,avoid,pos,avoid-pos,1,1,555.4999999997672
sub-081,96,1,FALSE,left,avoid,pos,meat6_crop.jpg,2,10,TRUE,95,1,1818.7117,81,DON'T EAT                                    EAT,1818.0839,1803.9722,1755.5911,right,1,left,left,not_eat,not_eat,avoid,pos,avoid-pos,1,1,627.7999999998137
sub-081,97,1,FALSE,left,avoid,pos,meat1_crop.jpg,2,10,TRUE,96,1,1820.7451,81,DON'T EAT                                    EAT,1820.1024,1803.9722,1755.5911,right,1,left,left,not_eat,not_eat,avoid,pos,avoid-pos,1,1,642.7000000001863
sub-081,98,1,FALSE,left,avoid,pos,meat14_crop.jpg,2,10,TRUE,97,1,1822.6823,81,DON'T EAT                                    EAT,1822.1204,1803.9722,1755.5911,right,1,left,left,not_eat,not_eat,avoid,pos,avoid-pos,1,1,561.9000000001397
sub-081,99,1,FALSE,left,avoid,pos,meat22_crop.jpg,2,10,TRUE,98,1,1824.6735,81,DON'T EAT                                    EAT,1824.1392,1803.9722,1755.5911,right,1,left,left,not_eat,not_eat,avoid,pos,avoid-pos,1,1,534.2999999998137
sub-081,100,1,FALSE,left,avoid,pos,meat19_crop.jpg,2,10,TRUE,99,1,1826.817,81,DON'T EAT                                    EAT,1826.1573,1803.9722,1755.5911,right,1,left,left,not_eat,not_eat,avoid,pos,avoid-pos,1,1,659.6999999999534
sub-081,101,0,FALSE,right,approach,neg,insect33_crop.jpg,2,11,TRUE,100,2,1845.5435,81,DON'T EAT                                    EAT,1844.7892,1840.7859,1755.5911,right,2,right,right,eat,eat,approach,neg,approach-neg,1,1,754.3000000000466
sub-081,102,0,TRUE,right,avoid,neg,fungus10_crop.jpg,2,11,TRUE,101,1,1847.4045,81,DON'T EAT                                    EAT,1846.808,1840.7859,1755.5911,right,1,left,left,not_eat,not_eat,approach,neg,approach-neg,1,1,596.5
sub-081,103,0,FALSE,right,approach,neg,insect20_crop.jpg,2,11,TRUE,102,2,1849.4977,81,DON'T EAT                                    EAT,1848.8263,1840.7859,1755.5911,right,2,right,right,eat,eat,approach,neg,approach-neg,1,1,671.3999999999069
sub-081,104,0,FALSE,right,approach,neg,insect5_crop.jpg,2,11,TRUE,103,2,1851.3483,81,DON'T EAT                                    EAT,1850.8446,1840.7859,1755.5911,right,2,right,right,eat,eat,approach,neg,approach-neg,1,1,503.70000000018626
sub-081,105,0,FALSE,right,approach,neg,insect32_crop.jpg,2,11,TRUE,104,2,1853.4187,81,DON'T EAT                                    EAT,1852.8628,1840.7859,1755.5911,right,2,right,right,eat,eat,approach,neg,approach-neg,1,1,555.8999999999069
sub-081,106,0,TRUE,right,avoid,pos,meat8_crop.jpg,2,11,TRUE,105,1,1855.4877,81,DON'T EAT                                    EAT,1854.881,1840.7859,1755.5911,right,1,left,left,not_eat,not_eat,approach,neg,approach-neg,1,1,606.6999999999534
sub-081,107,0,FALSE,right,approach,neg,insect10_crop.jpg,2,11,TRUE,106,1,1857.4565,81,DON'T EAT                                    EAT,1856.8997,1840.7859,1755.5911,right,1,left,left,not_eat,not_eat,approach,neg,approach-neg,0,0,556.8000000000466
sub-081,108,0,FALSE,right,approach,neg,insect28_crop.jpg,2,11,TRUE,107,2,1859.5465,81,DON'T EAT                                    EAT,1858.918,1840.7859,1755.5911,right,2,right,right,eat,eat,approach,neg,approach-neg,1,1,628.5
sub-081,109,0,FALSE,right,approach,neg,insect24_crop.jpg,2,11,TRUE,108,2,1861.5621,81,DON'T EAT                                    EAT,1860.9358,1840.7859,1755.5911,right,2,right,right,eat,eat,approach,neg,approach-neg,1,1,626.3000000000466
sub-081,110,0,FALSE,right,approach,neg,insect23_crop.jpg,2,11,TRUE,109,2,1863.593,81,DON'T EAT                                    EAT,1862.9547,1840.7859,1755.5911,right,2,right,right,eat,eat,approach,neg,approach-neg,1,1,638.3000000000466
sub-081,111,3,TRUE,left,avoid,neg,fungus26_crop.jpg,2,12,TRUE,110,1,1883.4717,81,DON'T EAT                                    EAT,1882.5538,1878.5343,1755.5911,right,1,left,left,not_eat,not_eat,approach,neg,approach-neg,1,1,917.9000000001397
sub-081,112,3,FALSE,left,approach,neg,insect13_crop.jpg,2,12,TRUE,111,2,1885.2256,81,DON'T EAT                                    EAT,1884.5726,1878.5343,1755.5911,right,2,right,right,eat,eat,approach,neg,approach-neg,1,1,653.0000000002328
sub-081,113,3,FALSE,left,approach,neg,insect34_crop.jpg,2,12,TRUE,112,2,1887.1665,81,DON'T EAT                                    EAT,1886.591,1878.5343,1755.5911,right,2,right,right,eat,eat,approach,neg,approach-neg,1,1,575.5
sub-081,114,3,FALSE,left,approach,neg,insect30_crop.jpg,2,12,TRUE,113,2,1889.2378,81,DON'T EAT                                    EAT,1888.6093,1878.5343,1755.5911,right,2,right,right,eat,eat,approach,neg,approach-neg,1,1,628.5
sub-081,115,3,FALSE,left,approach,neg,insect16_crop.jpg,2,12,TRUE,114,2,1891.173,81,DON'T EAT                                    EAT,1890.6277,1878.5343,1755.5911,right,2,right,right,eat,eat,approach,neg,approach-neg,1,1,545.3000000000466
sub-081,116,3,FALSE,left,approach,neg,insect20_crop.jpg,2,12,TRUE,115,2,1893.1897,81,DON'T EAT                                    EAT,1892.6455,1878.5343,1755.5911,right,2,right,right,eat,eat,approach,neg,approach-neg,1,1,544.1999999999534
sub-081,117,3,FALSE,left,approach,neg,insect18_crop.jpg,2,12,TRUE,116,2,1895.1993,81,DON'T EAT                                    EAT,1894.6643,1878.5343,1755.5911,right,2,right,right,eat,eat,approach,neg,approach-neg,1,1,535.0000000002328
sub-081,118,3,FALSE,left,approach,neg,insect35_crop.jpg,2,12,TRUE,117,2,1897.1853,81,DON'T EAT                                    EAT,1896.6826,1878.5343,1755.5911,right,2,right,right,eat,eat,approach,neg,approach-neg,1,1,502.69999999995343
sub-081,119,3,FALSE,left,approach,neg,insect10_crop.jpg,2,12,TRUE,118,2,1899.205,81,DON'T EAT                                    EAT,1898.701,1878.5343,1755.5911,right,2,right,right,eat,eat,approach,neg,approach-neg,1,1,504
sub-081,120,3,TRUE,left,avoid,pos,meat30_crop.jpg,2,12,TRUE,119,1,1901.3483,81,DON'T EAT                                    EAT,1900.7194,1878.5343,1755.5911,right,1,left,left,not_eat,not_eat,approach,neg,approach-neg,1,1,628.9000000001397
sub-081,121,3,FALSE,right,approach,neg,insect22_crop.jpg,2,13,TRUE,120,2,1920.1895,81,DON'T EAT                                    EAT,1919.2349,1915.2147,1755.5911,right,2,right,right,eat,eat,approach,neg,approach-neg,1,1,954.6000000000931
sub-081,122,3,FALSE,right,approach,neg,insect9_crop.jpg,2,13,TRUE,121,2,1921.7815,81,DON'T EAT                                    EAT,1921.2524,1915.2147,1755.5911,right,2,right,right,eat,eat,approach,neg,approach-neg,1,1,529.0999999998603
sub-081,123,3,FALSE,right,approach,neg,insect16_crop.jpg,2,13,TRUE,122,2,1923.7306,81,DON'T EAT                                    EAT,1923.2714,1915.2147,1755.5911,right,2,right,right,eat,eat,approach,neg,approach-neg,1,1,459.19999999995343
sub-081,124,3,TRUE,right,avoid,pos,meat7_crop.jpg,2,13,TRUE,123,1,1926.0146,81,DON'T EAT                                    EAT,1925.2899,1915.2147,1755.5911,right,1,left,left,not_eat,not_eat,approach,neg,approach-neg,1,1,724.6999999999534
sub-081,125,3,TRUE,right,avoid,neg,fungus27_crop.jpg,2,13,TRUE,124,1,1928.1047,81,DON'T EAT                                    EAT,1927.3082,1915.2147,1755.5911,right,1,left,left,not_eat,not_eat,approach,neg,approach-neg,1,1,796.5000000002328
sub-081,126,3,FALSE,right,approach,neg,insect34_crop.jpg,2,13,TRUE,125,2,1929.9038,81,DON'T EAT                                    EAT,1929.3264,1915.2147,1755.5911,right,2,right,right,eat,eat,approach,neg,approach-neg,1,1,577.4000000001397
sub-081,127,3,FALSE,right,approach,neg,insect4_crop.jpg,2,13,TRUE,126,2,1931.9095,81,DON'T EAT                                    EAT,1931.3448,1915.2147,1755.5911,right,2,right,right,eat,eat,approach,neg,approach-neg,1,1,564.6999999999534
sub-081,128,3,FALSE,right,approach,neg,insect15_crop.jpg,2,13,TRUE,127,2,1933.8658,81,DON'T EAT                                    EAT,1933.3632,1915.2147,1755.5911,right,2,right,right,eat,eat,approach,neg,approach-neg,1,1,502.60000000009313
sub-081,129,3,FALSE,right,approach,neg,insect17_crop.jpg,2,13,TRUE,128,2,1935.8945,81,DON'T EAT                                    EAT,1935.3812,1915.2147,1755.5911,right,2,right,right,eat,eat,approach,neg,approach-neg,1,1,513.3000000000466
sub-081,130,3,FALSE,right,approach,neg,insect36_crop.jpg,2,13,TRUE,129,2,1937.9762,81,DON'T EAT                                    EAT,1937.3999,1915.2147,1755.5911,right,2,right,right,eat,eat,approach,neg,approach-neg,1,1,576.3000000000466
sub-081,131,2,FALSE,left,approach,pos,cake3_crop.jpg,2,14,TRUE,130,2,1955.0203,81,DON'T EAT                                    EAT,1954.2137,1950.1938,1755.5911,right,2,right,right,eat,eat,approach,pos,approach-pos,1,1,806.5999999998603
sub-081,132,2,TRUE,left,avoid,neg,fungus22_crop.jpg,2,14,TRUE,131,1,1956.8917,81,DON'T EAT                                    EAT,1956.2322,1950.1938,1755.5911,right,1,left,left,not_eat,not_eat,approach,pos,approach-pos,1,1,659.5
sub-081,133,2,FALSE,left,approach,pos,cake12_crop.jpg,2,14,TRUE,132,2,1958.931,81,DON'T EAT                                    EAT,1958.2506,1950.1938,1755.5911,right,2,right,right,eat,eat,approach,pos,approach-pos,1,1,680.3999999999069
sub-081,134,2,FALSE,left,approach,pos,cake24_crop.jpg,2,14,TRUE,133,2,1960.9922,81,DON'T EAT                                    EAT,1960.269,1950.1938,1755.5911,right,2,right,right,eat,eat,approach,pos,approach-pos,1,1,723.1999999999534
sub-081,135,2,FALSE,left,approach,pos,cake31_crop.jpg,2,14,TRUE,134,2,1962.8895,81,DON'T EAT                                    EAT,1962.2869,1950.1938,1755.5911,right,2,right,right,eat,eat,approach,pos,approach-pos,1,1,602.5999999998603
sub-081,136,2,TRUE,left,avoid,pos,meat29_crop.jpg,2,14,TRUE,135,1,1964.9977,81,DON'T EAT                                    EAT,1964.3055,1950.1938,1755.5911,right,1,left,left,not_eat,not_eat,approach,pos,approach-pos,1,1,692.1999999999534
sub-081,137,2,FALSE,left,approach,pos,cake21_crop.jpg,2,14,TRUE,136,2,1966.9417,81,DON'T EAT                                    EAT,1966.324,1950.1938,1755.5911,right,2,right,right,eat,eat,approach,pos,approach-pos,1,1,617.7000000001863
sub-081,138,2,FALSE,left,approach,pos,cake16_crop.jpg,2,14,TRUE,137,2,1968.856,81,DON'T EAT                                    EAT,1968.3422,1950.1938,1755.5911,right,2,right,right,eat,eat,approach,pos,approach-pos,1,1,513.8000000000466
sub-081,139,2,FALSE,left,approach,pos,cake23_crop.jpg,2,14,TRUE,138,2,1971.0931,81,DON'T EAT                                    EAT,1970.3606,1950.1938,1755.5911,right,2,right,right,eat,eat,approach,pos,approach-pos,1,1,732.5
sub-081,140,2,FALSE,left,approach,pos,cake7_crop.jpg,2,14,TRUE,139,2,1972.9196,81,DON'T EAT                                    EAT,1972.3784,1950.1938,1755.5911,right,2,right,right,eat,eat,approach,pos,approach-pos,1,1,541.1999999997206
sub-081,141,3,TRUE,right,approach,pos,cake30_crop.jpg,2,15,TRUE,140,2,1992.3606,81,DON'T EAT                                    EAT,1991.6945,1987.6744,1755.5911,right,2,right,right,eat,eat,avoid,neg,avoid-neg,1,1,666.1000000000931
sub-081,142,3,FALSE,right,avoid,neg,fungus23_crop.jpg,2,15,TRUE,141,1,1994.4873,81,DON'T EAT                                    EAT,1993.7131,1987.6744,1755.5911,right,1,left,left,not_eat,not_eat,avoid,neg,avoid-neg,1,1,774.2000000001863
sub-081,143,3,FALSE,right,avoid,neg,fungus11_crop.jpg,2,15,TRUE,142,1,1996.4431,81,DON'T EAT                                    EAT,1995.7317,1987.6744,1755.5911,right,1,left,left,not_eat,not_eat,avoid,neg,avoid-neg,1,1,711.3999999999069
sub-081,144,3,FALSE,right,avoid,neg,fungus2_crop.jpg,2,15,TRUE,143,1,1998.3552,81,DON'T EAT                                    EAT,1997.7502,1987.6744,1755.5911,right,1,left,left,not_eat,not_eat,avoid,neg,avoid-neg,1,1,605
sub-081,145,3,FALSE,right,avoid,neg,fungus24_crop.jpg,2,15,TRUE,144,1,2000.4171,81,DON'T EAT                                    EAT,1999.7686,1987.6744,1755.5911,right,1,left,left,not_eat,not_eat,avoid,neg,avoid-neg,1,1,648.4999999997672
sub-081,146,3,FALSE,right,avoid,neg,fungus30_crop.jpg,2,15,TRUE,145,1,2002.487,81,DON'T EAT                                    EAT,2001.7867,1987.6744,1755.5911,right,1,left,left,not_eat,not_eat,avoid,neg,avoid-neg,1,1,700.2999999998137
sub-081,147,3,FALSE,right,avoid,neg,fungus36_crop.jpg,2,15,TRUE,146,1,2004.4451,81,DON'T EAT                                    EAT,2003.805,1987.6744,1755.5911,right,1,left,left,not_eat,not_eat,avoid,neg,avoid-neg,1,1,640.0999999998603
sub-081,148,3,TRUE,right,approach,neg,insect40_crop.jpg,2,15,TRUE,147,2,2006.5771,81,DON'T EAT                                    EAT,2005.8235,1987.6744,1755.5911,right,2,right,right,eat,eat,avoid,neg,avoid-neg,1,1,753.5999999998603
sub-081,149,3,FALSE,right,avoid,neg,fungus14_crop.jpg,2,15,TRUE,148,1,2008.48,81,DON'T EAT                                    EAT,2007.8417,1987.6744,1755.5911,right,1,left,left,not_eat,not_eat,avoid,neg,avoid-neg,1,1,638.3000000000466
sub-081,150,3,FALSE,right,avoid,neg,fungus20_crop.jpg,2,15,TRUE,149,1,2010.6973,81,DON'T EAT                                    EAT,2009.8599,1987.6744,1755.5911,right,1,left,left,not_eat,not_eat,avoid,neg,avoid-neg,1,1,837.4000000001397
sub-081,151,3,FALSE,left,approach,pos,cake14_crop.jpg,2,16,TRUE,150,2,2028.5667,81,DON'T EAT                                    EAT,2027.8751,2023.8551,1755.5911,right,2,right,right,eat,eat,approach,pos,approach-pos,1,1,691.600000000326
sub-081,152,3,FALSE,left,approach,pos,cake27_crop.jpg,2,16,TRUE,151,2,2030.4585,81,DON'T EAT                                    EAT,2029.8934,2023.8551,1755.5911,right,2,right,right,eat,eat,approach,pos,approach-pos,1,1,565.1000000000931
sub-081,153,3,TRUE,left,avoid,pos,meat31_crop.jpg,2,16,TRUE,152,1,2032.5775,81,DON'T EAT                                    EAT,2031.9116,2023.8551,1755.5911,right,1,left,left,not_eat,not_eat,approach,pos,approach-pos,1,1,665.9000000001397
sub-081,154,3,FALSE,left,approach,pos,cake18_crop.jpg,2,16,TRUE,153,2,2034.5792,81,DON'T EAT                                    EAT,2033.9299,2023.8551,1755.5911,right,2,right,right,eat,eat,approach,pos,approach-pos,1,1,649.2999999998137
sub-081,155,3,FALSE,left,approach,pos,cake36_crop.jpg,2,16,TRUE,154,2,2036.4613,81,DON'T EAT                                    EAT,2035.9485,2023.8551,1755.5911,right,2,right,right,eat,eat,approach,pos,approach-pos,1,1,512.8000000000466
sub-081,156,3,TRUE,left,avoid,neg,fungus40_crop.jpg,2,16,TRUE,155,1,2038.6176,81,DON'T EAT                                    EAT,2037.9668,2023.8551,1755.5911,right,1,left,left,not_eat,not_eat,approach,pos,approach-pos,1,1,650.8000000002794
sub-081,157,3,FALSE,left,approach,pos,cake10_crop.jpg,2,16,TRUE,156,2,2040.6132,81,DON'T EAT                                    EAT,2039.9851,2023.8551,1755.5911,right,2,right,right,eat,eat,approach,pos,approach-pos,1,1,628.0999999998603
sub-081,158,3,FALSE,left,approach,pos,cake37_crop.jpg,2,16,TRUE,157,2,2042.5667,81,DON'T EAT                                    EAT,2042.0035,2023.8551,1755.5911,right,2,right,right,eat,eat,approach,pos,approach-pos,1,1,563.2000000001863
sub-081,159,3,FALSE,left,approach,pos,cake5_crop.jpg,2,16,TRUE,158,2,2044.5667,81,DON'T EAT                                    EAT,2044.0219,2023.8551,1755.5911,right,2,right,right,eat,eat,approach,pos,approach-pos,1,1,544.8000000002794
sub-081,160,3,FALSE,left,approach,pos,cake6_crop.jpg,2,16,TRUE,159,2,2046.5846,81,DON'T EAT                                    EAT,2046.04,2023.8551,1755.5911,right,2,right,right,eat,eat,approach,pos,approach-pos,1,1,544.5999999998603
sub-081,161,3,FALSE,left,avoid,pos,meat12_crop.jpg,3,17,TRUE,160,1,2136.5742,81,DON'T EAT                                    EAT,2135.7148,2131.6948,2117.9446,left,1,left,left,not_eat,not_eat,avoid,pos,avoid-pos,1,1,859.3999999999069
sub-081,162,3,FALSE,left,avoid,pos,meat10_crop.jpg,3,17,TRUE,161,1,2138.445,81,DON'T EAT                                    EAT,2137.7332,2131.6948,2117.9446,left,1,left,left,not_eat,not_eat,avoid,pos,avoid-pos,1,1,711.7999999998137
sub-081,163,3,FALSE,left,avoid,pos,meat13_crop.jpg,3,17,TRUE,162,1,2140.3694,81,DON'T EAT                                    EAT,2139.7512,2131.6948,2117.9446,left,1,left,left,not_eat,not_eat,avoid,pos,avoid-pos,1,1,618.1999999997206
sub-081,164,3,TRUE,left,approach,pos,cake30_crop.jpg,3,17,TRUE,163,2,2142.5862,81,DON'T EAT                                    EAT,2141.77,2131.6948,2117.9446,left,2,right,right,eat,eat,avoid,pos,avoid-pos,1,1,816.2000000001863
sub-081,165,3,FALSE,left,avoid,pos,meat17_crop.jpg,3,17,TRUE,164,1,2144.3647,81,DON'T EAT                                    EAT,2143.7883,2131.6948,2117.9446,left,1,left,left,not_eat,not_eat,avoid,pos,avoid-pos,1,1,576.3999999999069
sub-081,166,3,FALSE,left,avoid,pos,meat11_crop.jpg,3,17,TRUE,165,1,2146.5295,81,DON'T EAT                                    EAT,2145.8062,2131.6948,2117.9446,left,1,left,left,not_eat,not_eat,avoid,pos,avoid-pos,1,1,723.2999999998137
sub-081,167,3,FALSE,left,avoid,pos,meat37_crop.jpg,3,17,TRUE,166,1,2148.4531,81,DON'T EAT                                    EAT,2147.825,2131.6948,2117.9446,left,1,left,left,not_eat,not_eat,avoid,pos,avoid-pos,1,1,628.1000000000931
sub-081,168,3,FALSE,left,avoid,pos,meat23_crop.jpg,3,17,TRUE,167,1,2150.3997,81,DON'T EAT                                    EAT,2149.843,2131.6948,2117.9446,left,1,left,left,not_eat,not_eat,avoid,pos,avoid-pos,1,1,556.6999999997206
sub-081,169,3,FALSE,left,avoid,pos,meat2_crop.jpg,3,17,TRUE,168,1,2152.3948,81,DON'T EAT                                    EAT,2151.8613,2131.6948,2117.9446,left,1,left,left,not_eat,not_eat,avoid,pos,avoid-pos,1,1,533.5
sub-081,170,3,TRUE,left,approach,neg,insect21_crop.jpg,3,17,TRUE,169,2,2154.5303,81,DON'T EAT                                    EAT,2153.88,2131.6948,2117.9446,left,2,right,right,eat,eat,avoid,pos,avoid-pos,1,1,650.2999999998137
sub-081,171,1,FALSE,right,avoid,pos,meat28_crop.jpg,3,18,TRUE,170,1,2172.38,81,DON'T EAT                                    EAT,2171.5947,2167.5747,2117.9446,left,1,left,left,not_eat,not_eat,avoid,pos,avoid-pos,1,1,785.2999999998137
sub-081,172,1,FALSE,right,avoid,pos,meat31_crop.jpg,3,18,TRUE,171,1,2174.2114,81,DON'T EAT                                    EAT,2173.613,2167.5747,2117.9446,left,1,left,left,not_eat,not_eat,avoid,pos,avoid-pos,1,1,598.4000000003725
sub-081,173,1,FALSE,right,avoid,pos,meat23_crop.jpg,3,18,TRUE,172,1,2176.1018,81,DON'T EAT                                    EAT,2175.631,2167.5747,2117.9446,left,1,left,left,not_eat,not_eat,avoid,pos,avoid-pos,1,1,470.79999999981374
sub-081,174,1,FALSE,right,avoid,pos,meat2_crop.jpg,3,18,TRUE,173,1,2178.1282,81,DON'T EAT                                    EAT,2177.6492,2167.5747,2117.9446,left,1,left,left,not_eat,not_eat,avoid,pos,avoid-pos,1,1,479.00000000046566
sub-081,175,1,FALSE,right,avoid,pos,meat25_crop.jpg,3,18,TRUE,174,1,2180.306,81,DON'T EAT                                    EAT,2179.668,2167.5747,2117.9446,left,1,left,left,not_eat,not_eat,avoid,pos,avoid-pos,1,1,638
sub-081,176,1,FALSE,right,avoid,pos,meat24_crop.jpg,3,18,TRUE,175,1,2182.191,81,DON'T EAT                                    EAT,2181.6863,2167.5747,2117.9446,left,1,left,left,not_eat,not_eat,avoid,pos,avoid-pos,1,1,504.70000000018626
sub-081,177,1,FALSE,right,avoid,pos,meat33_crop.jpg,3,18,TRUE,176,1,2184.216,81,DON'T EAT                                    EAT,2183.7046,2167.5747,2117.9446,left,1,left,left,not_eat,not_eat,avoid,pos,avoid-pos,1,1,511.39999999990687
sub-081,178,1,FALSE,right,avoid,pos,meat19_crop.jpg,3,18,TRUE,177,1,2186.2776,81,DON'T EAT                                    EAT,2185.723,2167.5747,2117.9446,left,1,left,left,not_eat,not_eat,avoid,pos,avoid-pos,1,1,554.6000000000931
sub-081,179,1,TRUE,right,approach,neg,insect12_crop.jpg,3,18,TRUE,178,2,2188.3914,81,DON'T EAT                                    EAT,2187.741,2167.5747,2117.9446,left,2,right,right,eat,eat,avoid,pos,avoid-pos,1,1,650.3999999999069
sub-081,180,1,TRUE,right,approach,pos,cake9_crop.jpg,3,18,TRUE,179,2,2190.5767,81,DON'T EAT                                    EAT,2189.7598,2167.5747,2117.9446,left,2,right,right,eat,eat,avoid,pos,avoid-pos,1,1,816.9000000003725
sub-081,181,2,FALSE,left,avoid,neg,fungus15_crop.jpg,3,19,TRUE,180,1,2207.1033,81,DON'T EAT                                    EAT,2206.3398,2202.32,2117.9446,left,1,left,left,not_eat,not_eat,avoid,neg,avoid-neg,1,1,763.5
sub-081,182,2,FALSE,left,avoid,neg,fungus18_crop.jpg,3,19,TRUE,181,1,2208.9038,81,DON'T EAT                                    EAT,2208.3586,2202.32,2117.9446,left,1,left,left,not_eat,not_eat,avoid,neg,avoid-neg,1,1,545.1999999997206
sub-081,183,2,FALSE,left,avoid,neg,fungus37_crop.jpg,3,19,TRUE,182,1,2211.0803,81,DON'T EAT                                    EAT,2210.3767,2202.32,2117.9446,left,1,left,left,not_eat,not_eat,avoid,neg,avoid-neg,1,1,703.6000000005588
sub-081,184,2,TRUE,left,approach,pos,cake4_crop.jpg,3,19,TRUE,183,2,2213.0698,81,DON'T EAT                                    EAT,2212.3945,2202.32,2117.9446,left,2,right,right,eat,eat,avoid,neg,avoid-neg,1,1,675.3000000002794
sub-081,185,2,FALSE,left,avoid,neg,fungus17_crop.jpg,3,19,TRUE,184,1,2215.1152,81,DON'T EAT                                    EAT,2214.4133,2202.32,2117.9446,left,1,left,left,not_eat,not_eat,avoid,neg,avoid-neg,1,1,701.8999999999069
sub-081,186,2,FALSE,left,avoid,neg,fungus27_crop.jpg,3,19,TRUE,185,1,2216.9353,81,DON'T EAT                                    EAT,2216.432,2202.32,2117.9446,left,1,left,left,not_eat,not_eat,avoid,neg,avoid-neg,1,1,503.3000000002794
sub-081,187,2,FALSE,left,avoid,neg,fungus30_crop.jpg,3,19,TRUE,186,1,2218.984,81,DON'T EAT                                    EAT,2218.45,2202.32,2117.9446,left,1,left,left,not_eat,not_eat,avoid,neg,avoid-neg,1,1,534
sub-081,188,2,FALSE,left,avoid,neg,fungus33_crop.jpg,3,19,TRUE,187,1,2221.0117,81,DON'T EAT                                    EAT,2220.4683,2202.32,2117.9446,left,1,left,left,not_eat,not_eat,avoid,neg,avoid-neg,1,1,543.4000000003725
sub-081,189,2,FALSE,left,avoid,neg,fungus16_crop.jpg,3,19,TRUE,188,1,2223.132,81,DON'T EAT                                    EAT,2222.4863,2202.32,2117.9446,left,1,left,left,not_eat,not_eat,avoid,neg,avoid-neg,1,1,645.7000000001863
sub-081,190,2,TRUE,left,approach,neg,insect1_crop.jpg,3,19,TRUE,189,1,2225.0266,81,DON'T EAT                                    EAT,2224.505,2202.32,2117.9446,left,1,left,left,not_eat,not_eat,avoid,neg,avoid-neg,0,0,521.6000000000931
sub-081,191,2,FALSE,right,approach,pos,cake19_crop.jpg,3,20,TRUE,190,2,2243.335,81,DON'T EAT                                    EAT,2242.4697,2238.4502,2117.9446,left,2,right,right,eat,eat,approach,pos,approach-pos,1,1,865.2999999998137
sub-081,192,2,FALSE,right,approach,pos,cake28_crop.jpg,3,20,TRUE,191,2,2245.065,81,DON'T EAT                                    EAT,2244.4885,2238.4502,2117.9446,left,2,right,right,eat,eat,approach,pos,approach-pos,1,1,576.5
sub-081,193,2,TRUE,right,avoid,pos,meat30_crop.jpg,3,20,TRUE,192,1,2247.3123,81,DON'T EAT                                    EAT,2246.5068,2238.4502,2117.9446,left,1,left,left,not_eat,not_eat,approach,pos,approach-pos,1,1,805.5
sub-081,194,2,FALSE,right,approach,pos,cake10_crop.jpg,3,20,TRUE,193,2,2249.3108,81,DON'T EAT                                    EAT,2248.5251,2238.4502,2117.9446,left,2,right,right,eat,eat,approach,pos,approach-pos,1,1,785.7000000006519
sub-081,195,2,FALSE,right,approach,pos,cake16_crop.jpg,3,20,TRUE,194,2,2251.1094,81,DON'T EAT                                    EAT,2250.5435,2238.4502,2117.9446,left,2,right,right,eat,eat,approach,pos,approach-pos,1,1,565.8999999999069
sub-081,196,2,FALSE,right,approach,pos,cake34_crop.jpg,3,20,TRUE,195,2,2253.5308,81,DON'T EAT                                    EAT,2252.5615,2238.4502,2117.9446,left,2,right,right,eat,eat,approach,pos,approach-pos,1,1,969.2999999998137
sub-081,197,2,FALSE,right,approach,pos,cake18_crop.jpg,3,20,TRUE,196,2,2255.4612,81,DON'T EAT                                    EAT,2254.58,2238.4502,2117.9446,left,2,right,right,eat,eat,approach,pos,approach-pos,1,1,881.2000000001863
sub-081,198,2,TRUE,right,avoid,neg,fungus26_crop.jpg,3,20,TRUE,197,1,2257.2087,81,DON'T EAT                                    EAT,2256.5986,2238.4502,2117.9446,left,1,left,left,not_eat,not_eat,approach,pos,approach-pos,1,1,610.1000000005588
sub-081,199,2,FALSE,right,approach,pos,cake11_crop.jpg,3,20,TRUE,198,2,2259.2566,81,DON'T EAT                                    EAT,2258.617,2238.4502,2117.9446,left,2,right,right,eat,eat,approach,pos,approach-pos,1,1,639.6000000000931
sub-081,200,2,FALSE,right,approach,pos,cake3_crop.jpg,3,20,TRUE,199,2,2261.2437,81,DON'T EAT                                    EAT,2260.6353,2238.4502,2117.9446,left,2,right,right,eat,eat,approach,pos,approach-pos,1,1,608.4000000003725
sub-081,201,1,TRUE,left,avoid,neg,fungus1_crop.jpg,3,21,TRUE,200,1,2278.3862,81,DON'T EAT                                    EAT,2277.716,2273.696,2117.9446,left,1,left,left,not_eat,not_eat,approach,pos,approach-pos,1,1,670.1999999997206
sub-081,202,1,FALSE,left,approach,pos,cake33_crop.jpg,3,21,TRUE,201,2,2280.4995,81,DON'T EAT                                    EAT,2279.7346,2273.696,2117.9446,left,2,right,right,eat,eat,approach,pos,approach-pos,1,1,764.9000000003725
sub-081,203,1,FALSE,left,approach,pos,cake15_crop.jpg,3,21,TRUE,202,2,2282.3503,81,DON'T EAT                                    EAT,2281.753,2273.696,2117.9446,left,2,right,right,eat,eat,approach,pos,approach-pos,1,1,597.3000000002794
sub-081,204,1,FALSE,left,approach,pos,cake34_crop.jpg,3,21,TRUE,203,2,2284.3806,81,DON'T EAT                                    EAT,2283.7715,2273.696,2117.9446,left,2,right,right,eat,eat,approach,pos,approach-pos,1,1,609.1000000000931
sub-081,205,1,FALSE,left,approach,pos,cake35_crop.jpg,3,21,TRUE,204,2,2286.4094,81,DON'T EAT                                    EAT,2285.7896,2273.696,2117.9446,left,2,right,right,eat,eat,approach,pos,approach-pos,1,1,619.7999999998137
sub-081,206,1,FALSE,left,approach,pos,cake26_crop.jpg,3,21,TRUE,205,2,2288.3748,81,DON'T EAT                                    EAT,2287.8079,2273.696,2117.9446,left,2,right,right,eat,eat,approach,pos,approach-pos,1,1,566.9000000003725
sub-081,207,1,FALSE,left,approach,pos,cake13_crop.jpg,3,21,TRUE,206,2,2290.403,81,DON'T EAT                                    EAT,2289.8262,2273.696,2117.9446,left,2,right,right,eat,eat,approach,pos,approach-pos,1,1,576.7999999998137
sub-081,208,1,FALSE,left,approach,pos,cake8_crop.jpg,3,21,TRUE,207,2,2292.4836,81,DON'T EAT                                    EAT,2291.8445,2273.696,2117.9446,left,2,right,right,eat,eat,approach,pos,approach-pos,1,1,639.1000000000931
sub-081,209,1,TRUE,left,avoid,pos,meat35_crop.jpg,3,21,TRUE,208,1,2294.66,81,DON'T EAT                                    EAT,2293.863,2273.696,2117.9446,left,1,left,left,not_eat,not_eat,approach,pos,approach-pos,1,1,797
sub-081,210,1,FALSE,left,approach,pos,cake2_crop.jpg,3,21,TRUE,209,2,2296.7734,81,DON'T EAT                                    EAT,2295.881,2273.696,2117.9446,left,2,right,right,eat,eat,approach,pos,approach-pos,1,1,892.3999999999069
sub-081,211,0,TRUE,left,approach,pos,cake9_crop.jpg,3,22,TRUE,210,2,2313.9426,81,DON'T EAT                                    EAT,2313.2292,2309.209,2117.9446,left,2,right,right,eat,eat,avoid,pos,avoid-pos,1,1,713.3999999994412
sub-081,212,0,FALSE,left,avoid,pos,meat39_crop.jpg,3,22,TRUE,211,1,2316.1501,81,DON'T EAT                                    EAT,2315.2473,2309.209,2117.9446,left,1,left,left,not_eat,not_eat,avoid,pos,avoid-pos,1,1,902.7999999998137
sub-081,213,0,FALSE,left,avoid,pos,meat28_crop.jpg,3,22,TRUE,212,1,2318.1035,81,DON'T EAT                                    EAT,2317.2656,2309.209,2117.9446,left,1,left,left,not_eat,not_eat,avoid,pos,avoid-pos,1,1,837.8999999999069
sub-081,214,0,FALSE,left,avoid,pos,meat16_crop.jpg,3,22,TRUE,213,1,2319.9465,81,DON'T EAT                                    EAT,2319.2842,2309.209,2117.9446,left,1,left,left,not_eat,not_eat,avoid,pos,avoid-pos,1,1,662.2999999998137
sub-081,215,0,TRUE,left,approach,neg,insect25_crop.jpg,3,22,TRUE,214,2,2322.0051,81,DON'T EAT                                    EAT,2321.3025,2309.209,2117.9446,left,2,right,right,eat,eat,avoid,pos,avoid-pos,1,1,702.5999999996275
sub-081,216,0,FALSE,left,avoid,pos,meat9_crop.jpg,3,22,TRUE,215,1,2323.9175,81,DON'T EAT                                    EAT,2323.3206,2309.209,2117.9446,left,1,left,left,not_eat,not_eat,avoid,pos,avoid-pos,1,1,596.8999999999069
sub-081,217,0,FALSE,left,avoid,pos,meat36_crop.jpg,3,22,TRUE,216,1,2325.9033,81,DON'T EAT                                    EAT,2325.339,2309.209,2117.9446,left,1,left,left,not_eat,not_eat,avoid,pos,avoid-pos,1,1,564.2999999998137
sub-081,218,0,FALSE,left,avoid,pos,meat15_crop.jpg,3,22,TRUE,217,1,2327.9243,81,DON'T EAT                                    EAT,2327.3574,2309.209,2117.9446,left,1,left,left,not_eat,not_eat,avoid,pos,avoid-pos,1,1,566.9000000003725
sub-081,219,0,FALSE,left,avoid,pos,meat32_crop.jpg,3,22,TRUE,218,1,2329.9636,81,DON'T EAT                                    EAT,2329.3757,2309.209,2117.9446,left,1,left,left,not_eat,not_eat,avoid,pos,avoid-pos,1,1,587.8999999999069
sub-081,220,0,FALSE,left,avoid,pos,meat25_crop.jpg,3,22,TRUE,219,1,2332.015,81,DON'T EAT                                    EAT,2331.394,2309.209,2117.9446,left,1,left,left,not_eat,not_eat,avoid,pos,avoid-pos,1,1,621
sub-081,221,2,TRUE,right,approach,pos,cake13_crop.jpg,3,23,TRUE,220,2,2351.561,81,DON'T EAT                                    EAT,2350.7764,2346.7732,2117.9446,left,2,right,right,eat,eat,avoid,neg,avoid-neg,1,1,784.5999999996275
sub-081,222,2,FALSE,right,avoid,neg,fungus7_crop.jpg,3,23,TRUE,221,1,2353.4504,81,DON'T EAT                                    EAT,2352.795,2346.7732,2117.9446,left,1,left,left,not_eat,not_eat,avoid,neg,avoid-neg,1,1,655.4000000003725
sub-081,223,2,FALSE,right,avoid,neg,fungus18_crop.jpg,3,23,TRUE,222,1,2355.359,81,DON'T EAT                                    EAT,2354.8135,2346.7732,2117.9446,left,1,left,left,not_eat,not_eat,avoid,neg,avoid-neg,1,1,545.5
sub-081,224,2,FALSE,right,avoid,neg,fungus40_crop.jpg,3,23,TRUE,223,1,2357.5012,81,DON'T EAT                                    EAT,2356.832,2346.7732,2117.9446,left,1,left,left,not_eat,not_eat,avoid,neg,avoid-neg,1,1,669.2000000001863
sub-081,225,2,FALSE,right,avoid,neg,fungus33_crop.jpg,3,23,TRUE,224,1,2359.4248,81,DON'T EAT                                    EAT,2358.85,2346.7732,2117.9446,left,1,left,left,not_eat,not_eat,avoid,neg,avoid-neg,1,1,574.7999999998137
sub-081,226,2,FALSE,right,avoid,neg,fungus17_crop.jpg,3,23,TRUE,225,1,2361.5076,81,DON'T EAT                                    EAT,2360.8687,2346.7732,2117.9446,left,1,left,left,not_eat,not_eat,avoid,neg,avoid-neg,1,1,638.8999999999069
sub-081,227,2,FALSE,right,avoid,neg,fungus38_crop.jpg,3,23,TRUE,226,1,2363.577,81,DON'T EAT                                    EAT,2362.8865,2346.7732,2117.9446,left,1,left,left,not_eat,not_eat,avoid,neg,avoid-neg,1,1,690.5
sub-081,228,2,FALSE,right,avoid,neg,fungus37_crop.jpg,3,23,TRUE,227,1,2365.5537,81,DON'T EAT                                    EAT,2364.9053,2346.7732,2117.9446,left,1,left,left,not_eat,not_eat,avoid,neg,avoid-neg,1,1,648.3999999999069
sub-081,229,2,FALSE,right,avoid,neg,fungus34_crop.jpg,3,23,TRUE,228,1,2367.5627,81,DON'T EAT                                    EAT,2366.9236,2346.7732,2117.9446,left,1,left,left,not_eat,not_eat,avoid,neg,avoid-neg,1,1,639.0999999996275
sub-081,230,2,TRUE,right,approach,neg,insect7_crop.jpg,3,23,TRUE,229,2,2369.634,81,DON'T EAT                                    EAT,2368.942,2346.7732,2117.9446,left,2,right,right,eat,eat,avoid,neg,avoid-neg,1,1,692
sub-081,231,0,FALSE,right,avoid,pos,meat20_crop.jpg,3,24,TRUE,230,1,2386.9133,81,DON'T EAT                                    EAT,2386.1897,2382.1697,2117.9446,left,1,left,left,not_eat,not_eat,avoid,pos,avoid-pos,1,1,723.6000000005588
sub-081,232,0,FALSE,right,avoid,pos,meat3_crop.jpg,3,24,TRUE,231,1,2388.7427,81,DON'T EAT                                    EAT,2388.2083,2382.1697,2117.9446,left,1,left,left,not_eat,not_eat,avoid,pos,avoid-pos,1,1,534.3999999999069
sub-081,233,0,FALSE,right,avoid,pos,meat36_crop.jpg,3,24,TRUE,232,1,2390.792,81,DON'T EAT                                    EAT,2390.2263,2382.1697,2117.9446,left,1,left,left,not_eat,not_eat,avoid,pos,avoid-pos,1,1,565.7000000001863
sub-081,234,0,TRUE,right,approach,neg,insect27_crop.jpg,3,24,TRUE,233,2,2393.036,81,DON'T EAT                                    EAT,2392.2449,2382.1697,2117.9446,left,2,right,right,eat,eat,avoid,pos,avoid-pos,1,1,791.0999999996275
sub-081,235,0,TRUE,right,approach,pos,cake26_crop.jpg,3,24,TRUE,234,2,2395.0369,81,DON'T EAT                                    EAT,2394.263,2382.1697,2117.9446,left,2,right,right,eat,eat,avoid,pos,avoid-pos,1,1,773.8999999999069
sub-081,236,0,FALSE,right,avoid,pos,meat9_crop.jpg,3,24,TRUE,235,1,2396.9622,81,DON'T EAT                                    EAT,2396.281,2382.1697,2117.9446,left,1,left,left,not_eat,not_eat,avoid,pos,avoid-pos,1,1,681.1999999997206
sub-081,237,0,FALSE,right,avoid,pos,meat16_crop.jpg,3,24,TRUE,236,1,2399.0227,81,DON'T EAT                                    EAT,2398.2998,2382.1697,2117.9446,left,1,left,left,not_eat,not_eat,avoid,pos,avoid-pos,1,1,722.9000000003725
sub-081,238,0,FALSE,right,avoid,pos,meat1_crop.jpg,3,24,TRUE,237,1,2401.207,81,DON'T EAT                                    EAT,2400.318,2382.1697,2117.9446,left,1,left,left,not_eat,not_eat,avoid,pos,avoid-pos,1,1,889
sub-081,239,0,FALSE,right,avoid,pos,meat18_crop.jpg,3,24,TRUE,238,1,2402.919,81,DON'T EAT                                    EAT,2402.3364,2382.1697,2117.9446,left,1,left,left,not_eat,not_eat,avoid,pos,avoid-pos,1,1,582.5999999996275
sub-081,240,0,FALSE,right,avoid,pos,meat11_crop.jpg,3,24,TRUE,239,1,2404.9624,81,DON'T EAT                                    EAT,2404.3547,2382.1697,2117.9446,left,1,left,left,not_eat,not_eat,avoid,pos,avoid-pos,1,1,607.7000000001863
sub-081,241,0,TRUE,left,avoid,pos,meat8_crop.jpg,4,25,TRUE,240,1,2496.1062,81,DON'T EAT                                    EAT,2495.247,2491.227,2478.802,right,1,left,left,not_eat,not_eat,approach,neg,approach-neg,1,1,859.2000000001863
sub-081,242,0,FALSE,left,approach,neg,insect9_crop.jpg,4,25,TRUE,241,2,2497.852,81,DON'T EAT                                    EAT,2497.2654000000002,2491.227,2478.802,right,2,right,right,eat,eat,approach,neg,approach-neg,1,1,586.5999999996275
sub-081,243,0,FALSE,left,approach,neg,insect12_crop.jpg,4,25,TRUE,242,2,2499.8284,81,DON'T EAT                                    EAT,2499.2837,2491.227,2478.802,right,2,right,right,eat,eat,approach,neg,approach-neg,1,1,544.6999999997206
sub-081,244,0,FALSE,left,approach,neg,insect24_crop.jpg,4,25,TRUE,243,2,2501.837,81,DON'T EAT                                    EAT,2501.302,2491.227,2478.802,right,2,right,right,eat,eat,approach,neg,approach-neg,1,1,535
sub-081,245,0,TRUE,left,avoid,neg,fungus8_crop.jpg,4,25,TRUE,244,1,2503.9272,81,DON'T EAT                                    EAT,2503.32,2491.227,2478.802,right,1,left,left,not_eat,not_eat,approach,neg,approach-neg,1,1,607.2000000001863
sub-081,246,0,FALSE,left,approach,neg,insect37_crop.jpg,4,25,TRUE,245,2,2505.9468,81,DON'T EAT                                    EAT,2505.3386,2491.227,2478.802,right,2,right,right,eat,eat,approach,neg,approach-neg,1,1,608.2000000001863
sub-081,247,0,FALSE,left,approach,neg,insect19_crop.jpg,4,25,TRUE,246,2,2507.9019,81,DON'T EAT                                    EAT,2507.357,2491.227,2478.802,right,2,right,right,eat,eat,approach,neg,approach-neg,1,1,544.8999999999069
sub-081,248,0,FALSE,left,approach,neg,insect28_crop.jpg,4,25,TRUE,247,2,2509.9937,81,DON'T EAT                                    EAT,2509.3752,2491.227,2478.802,right,2,right,right,eat,eat,approach,neg,approach-neg,1,1,618.5000000004657
sub-081,249,0,FALSE,left,approach,neg,insect36_crop.jpg,4,25,TRUE,248,2,2511.9924,81,DON'T EAT                                    EAT,2511.3938,2491.227,2478.802,right,2,right,right,eat,eat,approach,neg,approach-neg,1,1,598.6000000000931
sub-081,250,0,FALSE,left,approach,neg,insect14_crop.jpg,4,25,TRUE,249,2,2514.0295,81,DON'T EAT                                    EAT,2513.412,2491.227,2478.802,right,2,right,right,eat,eat,approach,neg,approach-neg,1,1,617.5
sub-081,251,2,FALSE,right,approach,neg,insect1_crop.jpg,4,26,TRUE,250,2,2533.7073,81,DON'T EAT                                    EAT,2533.0613,2529.0417,2478.802,right,2,right,right,eat,eat,approach,neg,approach-neg,1,1,646
sub-081,252,2,FALSE,right,approach,neg,insect38_crop.jpg,4,26,TRUE,251,2,2535.5925,81,DON'T EAT                                    EAT,2535.08,2529.0417,2478.802,right,2,right,right,eat,eat,approach,neg,approach-neg,1,1,512.5
sub-081,253,2,FALSE,right,approach,neg,insect2_crop.jpg,4,26,TRUE,252,2,2537.6223,81,DON'T EAT                                    EAT,2537.0986,2529.0417,2478.802,right,2,right,right,eat,eat,approach,neg,approach-neg,1,1,523.7000000001863
sub-081,254,2,FALSE,right,approach,neg,insect39_crop.jpg,4,26,TRUE,253,2,2539.8398,81,DON'T EAT                                    EAT,2539.117,2529.0417,2478.802,right,2,right,right,eat,eat,approach,neg,approach-neg,1,1,722.8000000002794
sub-081,255,2,TRUE,right,avoid,neg,fungus19_crop.jpg,4,26,TRUE,254,1,2541.8801,81,DON'T EAT                                    EAT,2541.1353,2529.0417,2478.802,right,1,left,left,not_eat,not_eat,approach,neg,approach-neg,1,1,744.7999999998137
sub-081,256,2,FALSE,right,approach,neg,insect29_crop.jpg,4,26,TRUE,255,2,2543.7803,81,DON'T EAT                                    EAT,2543.153,2529.0417,2478.802,right,2,right,right,eat,eat,approach,neg,approach-neg,1,1,627.2999999998137
sub-081,257,2,FALSE,right,approach,neg,insect19_crop.jpg,4,26,TRUE,256,2,2545.7705,81,DON'T EAT                                    EAT,2545.1719,2529.0417,2478.802,right,2,right,right,eat,eat,approach,neg,approach-neg,1,1,598.6000000000931
sub-081,258,2,TRUE,right,avoid,pos,meat15_crop.jpg,4,26,TRUE,257,1,2548.0483,81,DON'T EAT                                    EAT,2547.19,2529.0417,2478.802,right,1,left,left,not_eat,not_eat,approach,neg,approach-neg,1,1,858.2999999998137
sub-081,259,2,FALSE,right,approach,neg,insect6_crop.jpg,4,26,TRUE,258,2,2549.8684,81,DON'T EAT                                    EAT,2549.2087,2529.0417,2478.802,right,2,right,right,eat,eat,approach,neg,approach-neg,1,1,659.6999999997206
sub-081,260,2,FALSE,right,approach,neg,insect30_crop.jpg,4,26,TRUE,259,2,2551.7708,81,DON'T EAT                                    EAT,2551.227,2529.0417,2478.802,right,2,right,right,eat,eat,approach,neg,approach-neg,1,1,543.7999999998137
sub-081,261,3,FALSE,right,approach,pos,cake6_crop.jpg,4,27,TRUE,260,2,2571.0867,81,DON'T EAT                                    EAT,2570.3928,2566.3728,2478.802,right,2,right,right,eat,eat,approach,pos,approach-pos,1,1,693.8999999994412
sub-081,262,3,TRUE,right,avoid,neg,fungus12_crop.jpg,4,27,TRUE,261,1,2573.1194,81,DON'T EAT                                    EAT,2572.4111,2566.3728,2478.802,right,1,left,left,not_eat,not_eat,approach,pos,approach-pos,1,1,708.3000000002794
sub-081,263,3,FALSE,right,approach,pos,cake29_crop.jpg,4,27,TRUE,262,2,2575.0808,81,DON'T EAT                                    EAT,2574.4297,2566.3728,2478.802,right,2,right,right,eat,eat,approach,pos,approach-pos,1,1,651.1000000000931
sub-081,264,3,TRUE,right,avoid,pos,meat27_crop.jpg,4,27,TRUE,263,1,2577.225,81,DON'T EAT                                    EAT,2576.448,2566.3728,2478.802,right,1,left,left,not_eat,not_eat,approach,pos,approach-pos,1,1,777
sub-081,265,3,FALSE,right,approach,pos,cake35_crop.jpg,4,27,TRUE,264,2,2579.256,81,DON'T EAT                                    EAT,2578.4658,2566.3728,2478.802,right,2,right,right,eat,eat,approach,pos,approach-pos,1,1,790.2000000001863
sub-081,266,3,FALSE,right,approach,pos,cake8_crop.jpg,4,27,TRUE,265,2,2581.0977,81,DON'T EAT                                    EAT,2580.4841,2566.3728,2478.802,right,2,right,right,eat,eat,approach,pos,approach-pos,1,1,613.5999999996275
sub-081,267,3,FALSE,right,approach,pos,cake21_crop.jpg,4,27,TRUE,266,2,2583.273,81,DON'T EAT                                    EAT,2582.5024,2566.3728,2478.802,right,2,right,right,eat,eat,approach,pos,approach-pos,1,1,770.6000000000931
sub-081,268,3,FALSE,right,approach,pos,cake7_crop.jpg,4,27,TRUE,267,2,2585.0967,81,DON'T EAT                                    EAT,2584.521,2566.3728,2478.802,right,2,right,right,eat,eat,approach,pos,approach-pos,1,1,575.7000000001863
sub-081,269,3,FALSE,right,approach,pos,cake31_crop.jpg,4,27,TRUE,268,2,2587.0837,81,DON'T EAT                                    EAT,2586.5398,2566.3728,2478.802,right,2,right,right,eat,eat,approach,pos,approach-pos,1,1,543.9000000003725
sub-081,270,3,FALSE,right,approach,pos,cake32_crop.jpg,4,27,TRUE,269,2,2589.1418,81,DON'T EAT                                    EAT,2588.5574,2566.3728,2478.802,right,2,right,right,eat,eat,approach,pos,approach-pos,1,1,584.3999999994412
sub-081,271,0,FALSE,left,avoid,neg,fungus4_crop.jpg,4,28,TRUE,270,1,2606.5842,81,DON'T EAT                                    EAT,2605.8723,2601.8523,2478.802,right,1,left,left,not_eat,not_eat,avoid,neg,avoid-neg,1,1,711.8999999999069
sub-081,272,0,FALSE,left,avoid,neg,fungus31_crop.jpg,4,28,TRUE,271,1,2608.5706,81,DON'T EAT                                    EAT,2607.8906,2601.8523,2478.802,right,1,left,left,not_eat,not_eat,avoid,neg,avoid-neg,1,1,680
sub-081,273,0,TRUE,left,approach,pos,cake29_crop.jpg,4,28,TRUE,272,2,2610.5178,81,DON'T EAT                                    EAT,2609.909,2601.8523,2478.802,right,2,right,right,eat,eat,avoid,neg,avoid-neg,1,1,608.8000000002794
sub-081,274,0,FALSE,left,avoid,neg,fungus38_crop.jpg,4,28,TRUE,273,1,2612.5571,81,DON'T EAT                                    EAT,2611.9275,2601.8523,2478.802,right,1,left,left,not_eat,not_eat,avoid,neg,avoid-neg,1,1,629.6000000000931
sub-081,275,0,TRUE,left,approach,neg,insect40_crop.jpg,4,28,TRUE,274,2,2614.7002,81,DON'T EAT                                    EAT,2613.9458,2601.8523,2478.802,right,2,right,right,eat,eat,avoid,neg,avoid-neg,1,1,754.4000000003725
sub-081,276,0,FALSE,left,avoid,neg,fungus23_crop.jpg,4,28,TRUE,275,1,2616.7405,81,DON'T EAT                                    EAT,2615.9639,2601.8523,2478.802,right,1,left,left,not_eat,not_eat,avoid,neg,avoid-neg,1,1,776.5999999996275
sub-081,277,0,FALSE,left,avoid,neg,fungus6_crop.jpg,4,28,TRUE,276,1,2618.621,81,DON'T EAT                                    EAT,2617.9824,2601.8523,2478.802,right,1,left,left,not_eat,not_eat,avoid,neg,avoid-neg,1,1,638.6000000000931
sub-081,278,0,FALSE,left,avoid,neg,fungus39_crop.jpg,4,28,TRUE,277,1,2620.7432,81,DON'T EAT                                    EAT,2620.0007,2601.8523,2478.802,right,1,left,left,not_eat,not_eat,avoid,neg,avoid-neg,1,1,742.4999999995343
sub-081,279,0,FALSE,left,avoid,neg,fungus34_crop.jpg,4,28,TRUE,278,1,2622.6592,81,DON'T EAT                                    EAT,2622.0193,2601.8523,2478.802,right,1,left,left,not_eat,not_eat,avoid,neg,avoid-neg,1,1,639.9000000003725
sub-081,280,0,FALSE,left,avoid,neg,fungus20_crop.jpg,4,28,TRUE,279,1,2624.751,81,DON'T EAT                                    EAT,2624.0376,2601.8523,2478.802,right,1,left,left,not_eat,not_eat,avoid,neg,avoid-neg,1,1,713.3999999999069
sub-081,281,0,FALSE,right,approach,pos,cake17_crop.jpg,4,29,TRUE,280,2,2644.4336,81,DON'T EAT                                    EAT,2643.754,2639.7336,2478.802,right,2,right,right,eat,eat,approach,pos,approach-pos,1,1,679.5999999996275
sub-081,282,0,FALSE,right,approach,pos,cake15_crop.jpg,4,29,TRUE,281,2,2646.2847,81,DON'T EAT                                    EAT,2645.7717,2639.7336,2478.802,right,2,right,right,eat,eat,approach,pos,approach-pos,1,1,513.0000000004657
sub-081,283,0,FALSE,right,approach,pos,cake39_crop.jpg,4,29,TRUE,282,2,2648.512,81,DON'T EAT                                    EAT,2647.7905,2639.7336,2478.802,right,2,right,right,eat,eat,approach,pos,approach-pos,1,1,721.5
sub-081,284,0,FALSE,right,approach,pos,cake36_crop.jpg,4,29,TRUE,283,2,2650.4375,81,DON'T EAT                                    EAT,2649.809,2639.7336,2478.802,right,2,right,right,eat,eat,approach,pos,approach-pos,1,1,628.5
sub-081,285,0,FALSE,right,approach,pos,cake38_crop.jpg,4,29,TRUE,284,2,2652.352,81,DON'T EAT                                    EAT,2651.8271,2639.7336,2478.802,right,2,right,right,eat,eat,approach,pos,approach-pos,1,1,524.8999999999069
sub-081,286,0,FALSE,right,approach,pos,cake40_crop.jpg,4,29,TRUE,285,2,2654.4119,81,DON'T EAT                                    EAT,2653.8452,2639.7336,2478.802,right,2,right,right,eat,eat,approach,pos,approach-pos,1,1,566.6999999997206
sub-081,287,0,FALSE,right,approach,pos,cake37_crop.jpg,4,29,TRUE,286,2,2656.5454,81,DON'T EAT                                    EAT,2655.8638,2639.7336,2478.802,right,2,right,right,eat,eat,approach,pos,approach-pos,1,1,681.5999999996275
sub-081,288,0,TRUE,right,avoid,pos,meat12_crop.jpg,4,29,TRUE,287,1,2658.5435,81,DON'T EAT                                    EAT,2657.8823,2639.7336,2478.802,right,1,left,left,not_eat,not_eat,approach,pos,approach-pos,1,1,661.1999999997206
sub-081,289,0,FALSE,right,approach,pos,cake22_crop.jpg,4,29,TRUE,288,2,2660.4858,81,DON'T EAT                                    EAT,2659.9006,2639.7336,2478.802,right,2,right,right,eat,eat,approach,pos,approach-pos,1,1,585.1999999997206
sub-081,290,0,TRUE,right,avoid,neg,fungus22_crop.jpg,4,29,TRUE,289,1,2662.7153,81,DON'T EAT                                    EAT,2661.9192,2639.7336,2478.802,right,1,left,left,not_eat,not_eat,approach,pos,approach-pos,1,1,796.1000000000931
sub-081,291,2,FALSE,right,avoid,pos,meat4_crop.jpg,4,30,TRUE,290,1,2682.2085,81,DON'T EAT                                    EAT,2681.3518,2677.3318,2478.802,right,1,left,left,not_eat,not_eat,avoid,pos,avoid-pos,1,1,856.7000000001863
sub-081,292,2,FALSE,right,avoid,pos,meat10_crop.jpg,4,30,TRUE,291,1,2683.9639,81,DON'T EAT                                    EAT,2683.3696,2677.3318,2478.802,right,1,left,left,not_eat,not_eat,avoid,pos,avoid-pos,1,1,594.3000000002794
sub-081,293,2,FALSE,right,avoid,pos,meat29_crop.jpg,4,30,TRUE,292,1,2686.0356,81,DON'T EAT                                    EAT,2685.388,2677.3318,2478.802,right,1,left,left,not_eat,not_eat,avoid,pos,avoid-pos,1,1,647.6000000000931
sub-081,294,2,FALSE,right,avoid,pos,meat37_crop.jpg,4,30,TRUE,293,1,2688.1772,81,DON'T EAT                                    EAT,2687.4062,2677.3318,2478.802,right,1,left,left,not_eat,not_eat,avoid,pos,avoid-pos,1,1,771.0000000004657
sub-081,295,2,FALSE,right,avoid,pos,meat26_crop.jpg,4,30,TRUE,294,1,2690.1643,81,DON'T EAT                                    EAT,2689.4246,2677.3318,2478.802,right,1,left,left,not_eat,not_eat,avoid,pos,avoid-pos,1,1,739.7000000001863
sub-081,296,2,FALSE,right,avoid,pos,meat6_crop.jpg,4,30,TRUE,295,1,2692.2136,81,DON'T EAT                                    EAT,2691.4429,2677.3318,2478.802,right,1,left,left,not_eat,not_eat,avoid,pos,avoid-pos,1,1,770.7000000001863
sub-081,297,2,FALSE,right,avoid,pos,meat32_crop.jpg,4,30,TRUE,296,1,2694.5488,81,DON'T EAT                                    EAT,2693.4614,2677.3318,2478.802,right,1,left,left,not_eat,not_eat,avoid,pos,avoid-pos,1,1,1087.3999999994412
sub-081,298,2,TRUE,right,approach,neg,insect21_crop.jpg,4,30,TRUE,297,2,2696.172,81,DON'T EAT                                    EAT,2695.48,2677.3318,2478.802,right,2,right,right,eat,eat,avoid,pos,avoid-pos,1,1,692
sub-081,299,2,FALSE,right,avoid,pos,meat34_crop.jpg,4,30,TRUE,298,1,2698.4521,81,DON'T EAT                                    EAT,2697.4985,2677.3318,2478.802,right,1,left,left,not_eat,not_eat,avoid,pos,avoid-pos,1,1,953.6000000000931
sub-081,300,2,TRUE,right,approach,pos,cake2_crop.jpg,4,30,TRUE,299,2,2700.3982,81,DON'T EAT                                    EAT,2699.5168,2677.3318,2478.802,right,2,right,right,eat,eat,avoid,pos,avoid-pos,1,1,881.4000000003725
sub-081,301,1,TRUE,right,avoid,pos,meat22_crop.jpg,4,31,TRUE,300,1,2719.1487,81,DON'T EAT                                    EAT,2718.3323,2714.3289,2478.802,right,1,left,left,not_eat,not_eat,approach,pos,approach-pos,1,1,816.4000000003725
sub-081,302,1,FALSE,right,approach,pos,cake20_crop.jpg,4,31,TRUE,301,2,2720.9783,81,DON'T EAT                                    EAT,2720.3508,2714.3289,2478.802,right,2,right,right,eat,eat,approach,pos,approach-pos,1,1,627.5
sub-081,303,1,FALSE,right,approach,pos,cake23_crop.jpg,4,31,TRUE,302,2,2723.0068,81,DON'T EAT                                    EAT,2722.3694,2714.3289,2478.802,right,2,right,right,eat,eat,approach,pos,approach-pos,1,1,637.4000000003725
sub-081,304,1,TRUE,right,avoid,neg,fungus28_crop.jpg,4,31,TRUE,303,1,2725.0576,81,DON'T EAT                                    EAT,2724.3875,2714.3289,2478.802,right,1,left,left,not_eat,not_eat,approach,pos,approach-pos,1,1,670.1000000000931
sub-081,305,1,FALSE,right,approach,pos,cake5_crop.jpg,4,31,TRUE,304,2,2727.3289,81,DON'T EAT                                    EAT,2726.406,2714.3289,2478.802,right,2,right,right,eat,eat,approach,pos,approach-pos,1,1,922.8999999999069
sub-081,306,1,FALSE,right,approach,pos,cake12_crop.jpg,4,31,TRUE,305,2,2729.3232,81,DON'T EAT                                    EAT,2728.4243,2714.3289,2478.802,right,2,right,right,eat,eat,approach,pos,approach-pos,1,1,898.8999999994412
sub-081,307,1,FALSE,right,approach,pos,cake25_crop.jpg,4,31,TRUE,306,2,2731.1128,81,DON'T EAT                                    EAT,2730.4424,2714.3289,2478.802,right,2,right,right,eat,eat,approach,pos,approach-pos,1,1,670.3999999999069
sub-081,308,1,FALSE,right,approach,pos,cake1_crop.jpg,4,31,TRUE,307,2,2733.077,81,DON'T EAT                                    EAT,2732.461,2714.3289,2478.802,right,2,right,right,eat,eat,approach,pos,approach-pos,1,1,616
sub-081,309,1,FALSE,right,approach,pos,cake33_crop.jpg,4,31,TRUE,308,2,2736.2317,81,DON'T EAT                                    EAT,2734.4792,2714.3289,2478.802,right,2,right,right,eat,eat,approach,pos,approach-pos,1,1,1752.4999999995343
sub-081,310,1,FALSE,right,approach,pos,cake27_crop.jpg,4,31,TRUE,309,2,2737.0847,81,DON'T EAT                                    EAT,2736.4978,2714.3289,2478.802,right,2,right,right,eat,eat,approach,pos,approach-pos,1,1,586.8999999994412
sub-081,311,3,FALSE,left,avoid,neg,fungus11_crop.jpg,4,32,TRUE,310,1,2756.918,81,DON'T EAT                                    EAT,2756.2139,2752.194,2478.802,right,1,left,left,not_eat,not_eat,avoid,neg,avoid-neg,1,1,704.0999999996275
sub-081,312,3,FALSE,left,avoid,neg,fungus36_crop.jpg,4,32,TRUE,311,1,2758.8604,81,DON'T EAT                                    EAT,2758.2324,2752.194,2478.802,right,1,left,left,not_eat,not_eat,avoid,neg,avoid-neg,1,1,628
sub-081,313,3,TRUE,left,approach,pos,cake20_crop.jpg,4,32,TRUE,312,2,2760.9004,81,DON'T EAT                                    EAT,2760.2507,2752.194,2478.802,right,2,right,right,eat,eat,avoid,neg,avoid-neg,1,1,649.6999999997206
sub-081,314,3,TRUE,left,approach,neg,insect5_crop.jpg,4,32,TRUE,313,2,2763.0095,81,DON'T EAT                                    EAT,2762.2693,2752.194,2478.802,right,2,right,right,eat,eat,avoid,neg,avoid-neg,1,1,740.2000000001863
sub-081,315,3,FALSE,left,avoid,neg,fungus9_crop.jpg,4,32,TRUE,314,1,2765.061,81,DON'T EAT                                    EAT,2764.287,2752.194,2478.802,right,1,left,left,not_eat,not_eat,avoid,neg,avoid-neg,1,1,774
sub-081,316,3,FALSE,left,avoid,neg,fungus7_crop.jpg,4,32,TRUE,315,1,2766.977,81,DON'T EAT                                    EAT,2766.306,2752.194,2478.802,right,1,left,left,not_eat,not_eat,avoid,neg,avoid-neg,1,1,671
sub-081,317,3,FALSE,left,avoid,neg,fungus14_crop.jpg,4,32,TRUE,316,1,2768.9324,81,DON'T EAT                                    EAT,2768.3242,2752.194,2478.802,right,1,left,left,not_eat,not_eat,avoid,neg,avoid-neg,1,1,608.2000000001863
sub-081,318,3,FALSE,left,avoid,neg,fungus35_crop.jpg,4,32,TRUE,317,1,2771.0876,81,DON'T EAT                                    EAT,2770.3425,2752.194,2478.802,right,1,left,left,not_eat,not_eat,avoid,neg,avoid-neg,1,1,745.0999999996275
sub-081,319,3,FALSE,left,avoid,neg,fungus32_crop.jpg,4,32,TRUE,318,1,2772.9883,81,DON'T EAT                                    EAT,2772.3606,2752.194,2478.802,right,1,left,left,not_eat,not_eat,avoid,neg,avoid-neg,1,1,627.6999999997206
sub-081,320,3,FALSE,left,avoid,neg,fungus12_crop.jpg,4,32,TRUE,319,1,2775.2185,81,DON'T EAT                                    EAT,2774.3792,2752.194,2478.802,right,1,left,left,not_eat,not_eat,avoid,neg,avoid-neg,1,1,839.3000000002794
