subject,trial_number,n_block,catch,hand,mot,val,stim_name,run_number,num_block,ran,order,response,time_of_response,subject_number,left_side_resp_label,trial_onset,blk_instr_onset,baseline_onset,response_hand,response_cleaned,response_lat,response_lat_cleaned,response_meaning,response_meaning_cleaned,condition_mot,condition_val,condition,correct,correct_cleaned,rt
sub-122,1,2,FALSE,right,approach,pos,cake11_crop.jpg,1,1,TRUE,0,1,97.27066,122,EAT                                    DON'T EAT,95.97158,91.951584,78.35645,right,1,left,left,eat,eat,approach,pos,approach-pos,1,1,1299.0800000000017
sub-122,2,2,TRUE,right,avoid,neg,fungus36_crop.jpg,1,1,TRUE,1,2,99.672356,122,EAT                                    DON'T EAT,97.990105,91.951584,78.35645,right,2,right,right,not_eat,not_eat,approach,pos,approach-pos,1,1,1682.2510000000038
sub-122,3,2,FALSE,right,approach,pos,cake30_crop.jpg,1,1,TRUE,2,1,101.00967,122,EAT                                    DON'T EAT,100.008255,91.951584,78.35645,right,1,left,left,eat,eat,approach,pos,approach-pos,1,1,1001.4149999999936
sub-122,4,2,FALSE,right,approach,pos,cake10_crop.jpg,1,1,TRUE,3,1,103.89863,122,EAT                                    DON'T EAT,102.0266,91.951584,78.35645,right,1,left,left,eat,eat,approach,pos,approach-pos,1,1,1872.0299999999843
sub-122,5,2,FALSE,right,approach,pos,cake38_crop.jpg,1,1,TRUE,4,1,105.028534,122,EAT                                    DON'T EAT,104.04495,91.951584,78.35645,right,1,left,left,eat,eat,approach,pos,approach-pos,1,1,983.5840000000026
sub-122,6,2,FALSE,right,approach,pos,cake28_crop.jpg,1,1,TRUE,5,1,107.50387,122,EAT                                    DON'T EAT,106.06918,91.951584,78.35645,right,1,left,left,eat,eat,approach,pos,approach-pos,1,1,1434.6900000000023
sub-122,7,2,TRUE,right,avoid,pos,meat14_crop.jpg,1,1,TRUE,6,2,109.37127,122,EAT                                    DON'T EAT,108.08424,91.951584,78.35645,right,2,right,right,not_eat,not_eat,approach,pos,approach-pos,1,1,1287.0299999999988
sub-122,8,2,FALSE,right,approach,pos,cake4_crop.jpg,1,1,TRUE,7,1,111.539696,122,EAT                                    DON'T EAT,110.10001,91.951584,78.35645,right,1,left,left,eat,eat,approach,pos,approach-pos,1,1,1439.686000000016
sub-122,9,2,FALSE,right,approach,pos,cake34_crop.jpg,1,1,TRUE,8,--,NA,122,EAT                                    DON'T EAT,112.118484,91.951584,78.35645,right,--,NA,NA,no_response,no_response,approach,pos,approach-pos,NA,NA,NA
sub-122,10,2,FALSE,right,approach,pos,cake13_crop.jpg,1,1,TRUE,9,1,115.19361,122,EAT                                    DON'T EAT,114.13655,91.951584,78.35645,right,1,left,left,eat,eat,approach,pos,approach-pos,1,1,1057.0599999999977
sub-122,11,2,TRUE,right,approach,pos,cake29_crop.jpg,1,2,TRUE,10,1,134.90065,122,EAT                                    DON'T EAT,133.8865,129.86644,78.35645,right,1,left,left,eat,eat,avoid,pos,avoid-pos,1,1,1014.1500000000233
sub-122,12,2,FALSE,right,avoid,pos,meat29_crop.jpg,1,2,TRUE,11,2,137.19336,122,EAT                                    DON'T EAT,135.90495,129.86644,78.35645,right,2,right,right,not_eat,not_eat,avoid,pos,avoid-pos,1,1,1288.4100000000035
sub-122,13,2,FALSE,right,avoid,pos,meat38_crop.jpg,1,2,TRUE,12,2,138.85379,122,EAT                                    DON'T EAT,137.92305,129.86644,78.35645,right,2,right,right,not_eat,not_eat,avoid,pos,avoid-pos,1,1,930.7400000000198
sub-122,14,2,FALSE,right,avoid,pos,meat15_crop.jpg,1,2,TRUE,13,2,140.96465,122,EAT                                    DON'T EAT,139.9414,129.86644,78.35645,right,2,right,right,not_eat,not_eat,avoid,pos,avoid-pos,1,1,1023.25
sub-122,15,2,TRUE,right,approach,neg,insect36_crop.jpg,1,2,TRUE,14,1,143.79674,122,EAT                                    DON'T EAT,141.95978,129.86644,78.35645,right,1,left,left,eat,eat,avoid,pos,avoid-pos,1,1,1836.9599999999919
sub-122,16,2,FALSE,right,avoid,pos,meat36_crop.jpg,1,2,TRUE,15,2,144.98207,122,EAT                                    DON'T EAT,143.97826,129.86644,78.35645,right,2,right,right,not_eat,not_eat,avoid,pos,avoid-pos,1,1,1003.8099999999977
sub-122,17,2,FALSE,right,avoid,pos,meat24_crop.jpg,1,2,TRUE,16,2,146.91641,122,EAT                                    DON'T EAT,145.99655,129.86644,78.35645,right,2,right,right,not_eat,not_eat,avoid,pos,avoid-pos,1,1,919.859999999986
sub-122,18,2,FALSE,right,avoid,pos,meat12_crop.jpg,1,2,TRUE,17,2,148.8618,122,EAT                                    DON'T EAT,148.01483,129.86644,78.35645,right,2,right,right,not_eat,not_eat,avoid,pos,avoid-pos,1,1,846.9700000000012
sub-122,19,2,FALSE,right,avoid,pos,meat19_crop.jpg,1,2,TRUE,18,2,150.72421,122,EAT                                    DON'T EAT,150.03313,129.86644,78.35645,right,2,right,right,not_eat,not_eat,avoid,pos,avoid-pos,1,1,691.0799999999872
sub-122,20,2,FALSE,right,avoid,pos,meat39_crop.jpg,1,2,TRUE,19,2,153.12177,122,EAT                                    DON'T EAT,152.05151,129.86644,78.35645,right,2,right,right,not_eat,not_eat,avoid,pos,avoid-pos,1,1,1070.2599999999802
sub-122,21,0,FALSE,right,avoid,pos,meat20_crop.jpg,1,3,TRUE,20,2,170.08066,122,EAT                                    DON'T EAT,169.09879,165.07884,78.35645,right,2,right,right,not_eat,not_eat,avoid,pos,avoid-pos,1,1,981.8699999999953
sub-122,22,0,FALSE,right,avoid,pos,meat11_crop.jpg,1,3,TRUE,21,2,171.83505,122,EAT                                    DON'T EAT,171.11687,165.07884,78.35645,right,2,right,right,not_eat,not_eat,avoid,pos,avoid-pos,1,1,718.179999999993
sub-122,23,0,TRUE,right,approach,pos,cake9_crop.jpg,1,3,TRUE,22,1,174.0547,122,EAT                                    DON'T EAT,173.13574,165.07884,78.35645,right,1,left,left,eat,eat,avoid,pos,avoid-pos,1,1,918.9599999999919
sub-122,24,0,FALSE,right,avoid,pos,meat33_crop.jpg,1,3,TRUE,23,2,176.47496,122,EAT                                    DON'T EAT,175.154,165.07884,78.35645,right,2,right,right,not_eat,not_eat,avoid,pos,avoid-pos,1,1,1320.960000000021
sub-122,25,0,FALSE,right,avoid,pos,meat31_crop.jpg,1,3,TRUE,24,2,177.9856,122,EAT                                    DON'T EAT,177.17236,165.07884,78.35645,right,2,right,right,not_eat,not_eat,avoid,pos,avoid-pos,1,1,813.2400000000198
sub-122,26,0,FALSE,right,avoid,pos,meat7_crop.jpg,1,3,TRUE,25,2,179.98277,122,EAT                                    DON'T EAT,179.19064,165.07884,78.35645,right,2,right,right,not_eat,not_eat,avoid,pos,avoid-pos,1,1,792.1299999999756
sub-122,27,0,FALSE,right,avoid,pos,meat18_crop.jpg,1,3,TRUE,26,2,182.2097,122,EAT                                    DON'T EAT,181.20891,165.07884,78.35645,right,2,right,right,not_eat,not_eat,avoid,pos,avoid-pos,1,1,1000.7900000000081
sub-122,28,0,FALSE,right,avoid,pos,meat8_crop.jpg,1,3,TRUE,27,2,183.88284,122,EAT                                    DON'T EAT,183.22765,165.07884,78.35645,right,2,right,right,not_eat,not_eat,avoid,pos,avoid-pos,1,1,655.1899999999732
sub-122,29,0,TRUE,right,approach,neg,insect40_crop.jpg,1,3,TRUE,28,1,186.41083,122,EAT                                    DON'T EAT,185.24583,165.07884,78.35645,right,1,left,left,eat,eat,avoid,pos,avoid-pos,1,1,1165
sub-122,30,0,FALSE,right,avoid,pos,meat25_crop.jpg,1,3,TRUE,29,2,188.35286,122,EAT                                    DON'T EAT,187.26422,165.07884,78.35645,right,2,right,right,not_eat,not_eat,avoid,pos,avoid-pos,1,1,1088.6399999999849
sub-122,31,3,TRUE,left,avoid,neg,fungus27_crop.jpg,1,4,TRUE,30,2,205.96373,122,EAT                                    DON'T EAT,204.67874,200.65865,78.35645,right,2,right,right,not_eat,not_eat,approach,pos,approach-pos,1,1,1284.9900000000198
sub-122,32,3,FALSE,left,approach,pos,cake40_crop.jpg,1,4,TRUE,31,1,207.63937,122,EAT                                    DON'T EAT,206.69705,200.65865,78.35645,right,1,left,left,eat,eat,approach,pos,approach-pos,1,1,942.3200000000361
sub-122,33,3,FALSE,left,approach,pos,cake17_crop.jpg,1,4,TRUE,32,1,209.50757,122,EAT                                    DON'T EAT,208.71533,200.65865,78.35645,right,1,left,left,eat,eat,approach,pos,approach-pos,1,1,792.2399999999907
sub-122,34,3,FALSE,left,approach,pos,cake13_crop.jpg,1,4,TRUE,33,1,211.40872,122,EAT                                    DON'T EAT,210.73366,200.65865,78.35645,right,1,left,left,eat,eat,approach,pos,approach-pos,1,1,675.0600000000268
sub-122,35,3,FALSE,left,approach,pos,cake8_crop.jpg,1,4,TRUE,34,1,213.45961,122,EAT                                    DON'T EAT,212.75189,200.65865,78.35645,right,1,left,left,eat,eat,approach,pos,approach-pos,1,1,707.7199999999721
sub-122,36,3,FALSE,left,approach,pos,cake29_crop.jpg,1,4,TRUE,35,1,215.44743,122,EAT                                    DON'T EAT,214.7701,200.65865,78.35645,right,1,left,left,eat,eat,approach,pos,approach-pos,1,1,677.3299999999872
sub-122,37,3,FALSE,left,approach,pos,cake19_crop.jpg,1,4,TRUE,36,1,217.39116,122,EAT                                    DON'T EAT,216.78868,200.65865,78.35645,right,1,left,left,eat,eat,approach,pos,approach-pos,1,1,602.4800000000105
sub-122,38,3,FALSE,left,approach,pos,cake25_crop.jpg,1,4,TRUE,37,1,219.45265,122,EAT                                    DON'T EAT,218.80699,200.65865,78.35645,right,1,left,left,eat,eat,approach,pos,approach-pos,1,1,645.6599999999744
sub-122,39,3,TRUE,left,avoid,pos,meat3_crop.jpg,1,4,TRUE,38,2,221.98776,122,EAT                                    DON'T EAT,220.82527,200.65865,78.35645,right,2,right,right,not_eat,not_eat,approach,pos,approach-pos,1,1,1162.4900000000198
sub-122,40,3,FALSE,left,approach,pos,cake10_crop.jpg,1,4,TRUE,39,1,223.8597,122,EAT                                    DON'T EAT,222.84364,200.65865,78.35645,right,1,left,left,eat,eat,approach,pos,approach-pos,1,1,1016.0600000000268
sub-122,41,1,FALSE,right,approach,neg,insect16_crop.jpg,1,5,TRUE,40,1,243.35101,122,EAT                                    DON'T EAT,242.52666,238.50671,78.35645,right,1,left,left,eat,eat,approach,neg,approach-neg,1,1,824.3500000000058
sub-122,42,1,TRUE,right,avoid,pos,meat32_crop.jpg,1,5,TRUE,41,2,245.36769,122,EAT                                    DON'T EAT,244.54477,238.50671,78.35645,right,2,right,right,not_eat,not_eat,approach,neg,approach-neg,1,1,822.9200000000128
sub-122,43,1,FALSE,right,approach,neg,insect5_crop.jpg,1,5,TRUE,42,1,247.36646,122,EAT                                    DON'T EAT,246.56287,238.50671,78.35645,right,1,left,left,eat,eat,approach,neg,approach-neg,1,1,803.5899999999965
sub-122,44,1,FALSE,right,approach,neg,insect1_crop.jpg,1,5,TRUE,43,1,249.26645,122,EAT                                    DON'T EAT,248.58159,238.50671,78.35645,right,1,left,left,eat,eat,approach,neg,approach-neg,1,1,684.859999999986
sub-122,45,1,FALSE,right,approach,neg,insect9_crop.jpg,1,5,TRUE,44,1,251.21196,122,EAT                                    DON'T EAT,250.59995,238.50671,78.35645,right,1,left,left,eat,eat,approach,neg,approach-neg,1,1,612.0099999999802
sub-122,46,1,FALSE,right,approach,neg,insect33_crop.jpg,1,5,TRUE,45,1,253.33578,122,EAT                                    DON'T EAT,252.61841,238.50671,78.35645,right,1,left,left,eat,eat,approach,neg,approach-neg,1,1,717.3699999999953
sub-122,47,1,FALSE,right,approach,neg,insect17_crop.jpg,1,5,TRUE,46,1,255.32571,122,EAT                                    DON'T EAT,254.63667,238.50671,78.35645,right,1,left,left,eat,eat,approach,neg,approach-neg,1,1,689.039999999979
sub-122,48,1,TRUE,right,avoid,neg,fungus14_crop.jpg,1,5,TRUE,47,2,257.79553,122,EAT                                    DON'T EAT,256.65503,238.50671,78.35645,right,2,right,right,not_eat,not_eat,approach,neg,approach-neg,1,1,1140.5
sub-122,49,1,FALSE,right,approach,neg,insect25_crop.jpg,1,5,TRUE,48,1,259.47525,122,EAT                                    DON'T EAT,258.6735,238.50671,78.35645,right,1,left,left,eat,eat,approach,neg,approach-neg,1,1,801.7500000000291
sub-122,50,1,FALSE,right,approach,neg,insect15_crop.jpg,1,5,TRUE,49,1,261.3645,122,EAT                                    DON'T EAT,260.6917,238.50671,78.35645,right,1,left,left,eat,eat,approach,neg,approach-neg,1,1,672.8000000000175
sub-122,51,2,FALSE,left,approach,pos,cake18_crop.jpg,1,6,TRUE,50,1,278.3695,122,EAT                                    DON'T EAT,276.9719,272.95187,78.35645,right,1,left,left,eat,eat,approach,pos,approach-pos,1,1,1397.5999999999767
sub-122,52,2,FALSE,left,approach,pos,cake32_crop.jpg,1,6,TRUE,51,1,279.8991,122,EAT                                    DON'T EAT,278.99026,272.95187,78.35645,right,1,left,left,eat,eat,approach,pos,approach-pos,1,1,908.8400000000256
sub-122,53,2,FALSE,left,approach,pos,cake38_crop.jpg,1,6,TRUE,52,1,281.76773,122,EAT                                    DON'T EAT,281.00873,272.95187,78.35645,right,1,left,left,eat,eat,approach,pos,approach-pos,1,1,758.9999999999418
sub-122,54,2,FALSE,left,approach,pos,cake26_crop.jpg,1,6,TRUE,53,1,283.67355,122,EAT                                    DON'T EAT,283.02686,272.95187,78.35645,right,1,left,left,eat,eat,approach,pos,approach-pos,1,1,646.6900000000023
sub-122,55,2,FALSE,left,approach,pos,cake28_crop.jpg,1,6,TRUE,54,1,285.71243,122,EAT                                    DON'T EAT,285.0453,272.95187,78.35645,right,1,left,left,eat,eat,approach,pos,approach-pos,1,1,667.1300000000047
sub-122,56,2,FALSE,left,approach,pos,cake23_crop.jpg,1,6,TRUE,55,1,287.854,122,EAT                                    DON'T EAT,287.06363,272.95187,78.35645,right,1,left,left,eat,eat,approach,pos,approach-pos,1,1,790.3699999999953
sub-122,57,2,FALSE,left,approach,pos,cake27_crop.jpg,1,6,TRUE,56,1,289.80963,122,EAT                                    DON'T EAT,289.08188,272.95187,78.35645,right,1,left,left,eat,eat,approach,pos,approach-pos,1,1,727.75
sub-122,58,2,FALSE,left,approach,pos,cake22_crop.jpg,1,6,TRUE,57,1,292.00635,122,EAT                                    DON'T EAT,291.10004,272.95187,78.35645,right,1,left,left,eat,eat,approach,pos,approach-pos,1,1,906.3099999999977
sub-122,59,2,TRUE,left,avoid,neg,fungus17_crop.jpg,1,6,TRUE,58,2,294.23645,122,EAT                                    DON'T EAT,293.11868,272.95187,78.35645,right,2,right,right,not_eat,not_eat,approach,pos,approach-pos,1,1,1117.7700000000186
sub-122,60,2,TRUE,left,avoid,pos,meat38_crop.jpg,1,6,TRUE,59,2,295.98288,122,EAT                                    DON'T EAT,295.137,272.95187,78.35645,right,2,right,right,not_eat,not_eat,approach,pos,approach-pos,1,1,845.8800000000047
sub-122,61,3,FALSE,left,approach,neg,insect18_crop.jpg,1,7,TRUE,60,1,312.53622,122,EAT                                    DON'T EAT,311.56732,307.5471,78.35645,right,1,left,left,eat,eat,approach,neg,approach-neg,1,1,968.9000000000233
sub-122,62,3,FALSE,left,approach,neg,insect4_crop.jpg,1,7,TRUE,61,1,314.36996,122,EAT                                    DON'T EAT,313.58493,307.5471,78.35645,right,1,left,left,eat,eat,approach,neg,approach-neg,1,1,785.0299999999697
sub-122,63,3,FALSE,left,approach,neg,insect10_crop.jpg,1,7,TRUE,62,1,316.27148,122,EAT                                    DON'T EAT,315.6036,307.5471,78.35645,right,1,left,left,eat,eat,approach,neg,approach-neg,1,1,667.8800000000047
sub-122,64,3,TRUE,left,avoid,pos,meat37_crop.jpg,1,7,TRUE,63,2,318.65552,122,EAT                                    DON'T EAT,317.6223,307.5471,78.35645,right,2,right,right,not_eat,not_eat,approach,neg,approach-neg,1,1,1033.2200000000303
sub-122,65,3,TRUE,left,avoid,neg,fungus21_crop.jpg,1,7,TRUE,64,2,320.54642,122,EAT                                    DON'T EAT,319.6407,307.5471,78.35645,right,2,right,right,not_eat,not_eat,approach,neg,approach-neg,1,1,905.7200000000303
sub-122,66,3,FALSE,left,approach,neg,insect16_crop.jpg,1,7,TRUE,65,1,322.39014,122,EAT                                    DON'T EAT,321.65887,307.5471,78.35645,right,1,left,left,eat,eat,approach,neg,approach-neg,1,1,731.2699999999604
sub-122,67,3,FALSE,left,approach,neg,insect14_crop.jpg,1,7,TRUE,66,1,324.29227,122,EAT                                    DON'T EAT,323.67746,307.5471,78.35645,right,1,left,left,eat,eat,approach,neg,approach-neg,1,1,614.8099999999395
sub-122,68,3,FALSE,left,approach,neg,insect2_crop.jpg,1,7,TRUE,67,1,326.54068,122,EAT                                    DON'T EAT,325.69568,307.5471,78.35645,right,1,left,left,eat,eat,approach,neg,approach-neg,1,1,845
sub-122,69,3,FALSE,left,approach,neg,insect19_crop.jpg,1,7,TRUE,68,1,328.28418,122,EAT                                    DON'T EAT,327.71402,307.5471,78.35645,right,1,left,left,eat,eat,approach,neg,approach-neg,1,1,570.1599999999744
sub-122,70,3,FALSE,left,approach,neg,insect11_crop.jpg,1,7,TRUE,69,1,330.19748,122,EAT                                    DON'T EAT,329.73233,307.5471,78.35645,right,1,left,left,eat,eat,approach,neg,approach-neg,1,1,465.1499999999651
sub-122,71,1,FALSE,right,approach,pos,cake5_crop.jpg,1,8,TRUE,70,1,349.80353,122,EAT                                    DON'T EAT,348.7815,344.76157,78.35645,right,1,left,left,eat,eat,approach,pos,approach-pos,1,1,1022.0300000000279
sub-122,72,1,FALSE,right,approach,pos,cake22_crop.jpg,1,8,TRUE,71,1,351.46448,122,EAT                                    DON'T EAT,350.79984,344.76157,78.35645,right,1,left,left,eat,eat,approach,pos,approach-pos,1,1,664.6399999999558
sub-122,73,1,FALSE,right,approach,pos,cake15_crop.jpg,1,8,TRUE,72,1,353.5943,122,EAT                                    DON'T EAT,352.8177,344.76157,78.35645,right,1,left,left,eat,eat,approach,pos,approach-pos,1,1,776.5999999999767
sub-122,74,1,TRUE,right,avoid,pos,meat6_crop.jpg,1,8,TRUE,73,2,355.71338,122,EAT                                    DON'T EAT,354.83627,344.76157,78.35645,right,2,right,right,not_eat,not_eat,approach,pos,approach-pos,1,1,877.1099999999278
sub-122,75,1,FALSE,right,approach,pos,cake25_crop.jpg,1,8,TRUE,74,1,357.68958,122,EAT                                    DON'T EAT,356.8549,344.76157,78.35645,right,1,left,left,eat,eat,approach,pos,approach-pos,1,1,834.679999999993
sub-122,76,1,FALSE,right,approach,pos,cake17_crop.jpg,1,8,TRUE,75,1,359.64355,122,EAT                                    DON'T EAT,358.87326,344.76157,78.35645,right,1,left,left,eat,eat,approach,pos,approach-pos,1,1,770.289999999979
sub-122,77,1,FALSE,right,approach,pos,cake2_crop.jpg,1,8,TRUE,76,1,361.6701,122,EAT                                    DON'T EAT,360.8914,344.76157,78.35645,right,1,left,left,eat,eat,approach,pos,approach-pos,1,1,778.7000000000116
sub-122,78,1,TRUE,right,avoid,neg,fungus20_crop.jpg,1,8,TRUE,77,2,363.79648,122,EAT                                    DON'T EAT,362.9099,344.76157,78.35645,right,2,right,right,not_eat,not_eat,approach,pos,approach-pos,1,1,886.5800000000163
sub-122,79,1,FALSE,right,approach,pos,cake12_crop.jpg,1,8,TRUE,78,1,365.79514,122,EAT                                    DON'T EAT,364.92834,344.76157,78.35645,right,1,left,left,eat,eat,approach,pos,approach-pos,1,1,866.8000000000466
sub-122,80,1,FALSE,right,approach,pos,cake26_crop.jpg,1,8,TRUE,79,1,367.70966,122,EAT                                    DON'T EAT,366.94672,344.76157,78.35645,right,1,left,left,eat,eat,approach,pos,approach-pos,1,1,762.9399999999441
sub-122,81,2,FALSE,left,avoid,pos,meat25_crop.jpg,2,9,TRUE,80,2,465.95255,122,EAT                                    DON'T EAT,464.81113,460.7911,448.83435,left,2,right,right,not_eat,not_eat,avoid,pos,avoid-pos,1,1,1141.4199999999837
sub-122,82,2,FALSE,left,avoid,pos,meat32_crop.jpg,2,9,TRUE,81,2,467.47406,122,EAT                                    DON'T EAT,466.8295,460.7911,448.83435,left,2,right,right,not_eat,not_eat,avoid,pos,avoid-pos,1,1,644.5599999999977
sub-122,83,2,TRUE,left,approach,neg,insect26_crop.jpg,2,9,TRUE,82,1,469.74463,122,EAT                                    DON'T EAT,468.8476,460.7911,448.83435,left,1,left,left,eat,eat,avoid,pos,avoid-pos,1,1,897.0299999999697
sub-122,84,2,FALSE,left,avoid,pos,meat28_crop.jpg,2,9,TRUE,83,2,471.61768,122,EAT                                    DON'T EAT,470.8662,460.7911,448.83435,left,2,right,right,not_eat,not_eat,avoid,pos,avoid-pos,1,1,751.4799999999814
sub-122,85,2,FALSE,left,avoid,pos,meat35_crop.jpg,2,9,TRUE,84,2,473.54926,122,EAT                                    DON'T EAT,472.88452,460.7911,448.83435,left,2,right,right,not_eat,not_eat,avoid,pos,avoid-pos,1,1,664.7399999999907
sub-122,86,2,FALSE,left,avoid,pos,meat12_crop.jpg,2,9,TRUE,85,2,475.70917,122,EAT                                    DON'T EAT,474.90295,460.7911,448.83435,left,2,right,right,not_eat,not_eat,avoid,pos,avoid-pos,1,1,806.2200000000303
sub-122,87,2,FALSE,left,avoid,pos,meat23_crop.jpg,2,9,TRUE,86,2,477.60867,122,EAT                                    DON'T EAT,476.92126,460.7911,448.83435,left,2,right,right,not_eat,not_eat,avoid,pos,avoid-pos,1,1,687.4100000000326
sub-122,88,2,TRUE,left,approach,pos,cake5_crop.jpg,2,9,TRUE,87,1,479.86017,122,EAT                                    DON'T EAT,478.93958,460.7911,448.83435,left,1,left,left,eat,eat,avoid,pos,avoid-pos,1,1,920.5900000000256
sub-122,89,2,FALSE,left,avoid,pos,meat36_crop.jpg,2,9,TRUE,88,2,481.75162,122,EAT                                    DON'T EAT,480.95804,460.7911,448.83435,left,2,right,right,not_eat,not_eat,avoid,pos,avoid-pos,1,1,793.5800000000163
sub-122,90,2,FALSE,left,avoid,pos,meat22_crop.jpg,2,9,TRUE,89,2,483.74863,122,EAT                                    DON'T EAT,482.9763,460.7911,448.83435,left,2,right,right,not_eat,not_eat,avoid,pos,avoid-pos,1,1,772.3300000000163
sub-122,91,0,FALSE,left,avoid,neg,fungus28_crop.jpg,2,10,TRUE,90,2,502.2263,122,EAT                                    DON'T EAT,501.25827,497.23813,448.83435,left,2,right,right,not_eat,not_eat,avoid,neg,avoid-neg,1,1,968.0300000000279
sub-122,92,0,TRUE,left,approach,pos,cake6_crop.jpg,2,10,TRUE,91,1,504.12155,122,EAT                                    DON'T EAT,503.2764,497.23813,448.83435,left,1,left,left,eat,eat,avoid,neg,avoid-neg,1,1,845.1499999999651
sub-122,93,0,FALSE,left,avoid,neg,fungus24_crop.jpg,2,10,TRUE,92,2,506.03442,122,EAT                                    DON'T EAT,505.29456,497.23813,448.83435,left,2,right,right,not_eat,not_eat,avoid,neg,avoid-neg,1,1,739.859999999986
sub-122,94,0,FALSE,left,avoid,neg,fungus6_crop.jpg,2,10,TRUE,93,2,508.62592,122,EAT                                    DON'T EAT,507.3131,497.23813,448.83435,left,2,right,right,not_eat,not_eat,avoid,neg,avoid-neg,1,1,1312.8199999999488
sub-122,95,0,FALSE,left,avoid,neg,fungus11_crop.jpg,2,10,TRUE,94,--,NA,122,EAT                                    DON'T EAT,509.3314,497.23813,448.83435,left,--,NA,NA,no_response,no_response,avoid,neg,avoid-neg,NA,NA,NA
sub-122,96,0,TRUE,left,approach,neg,insect33_crop.jpg,2,10,TRUE,95,2,511.52924,122,EAT                                    DON'T EAT,511.3498,497.23813,448.83435,left,2,right,right,not_eat,not_eat,avoid,neg,avoid-neg,0,0,179.44000000000233
sub-122,97,0,FALSE,left,avoid,neg,fungus39_crop.jpg,2,10,TRUE,96,2,514.80493,122,EAT                                    DON'T EAT,513.3679,497.23813,448.83435,left,2,right,right,not_eat,not_eat,avoid,neg,avoid-neg,1,1,1437.030000000028
sub-122,98,0,FALSE,left,avoid,neg,fungus10_crop.jpg,2,10,TRUE,97,2,516.2765,122,EAT                                    DON'T EAT,515.38654,497.23813,448.83435,left,2,right,right,not_eat,not_eat,avoid,neg,avoid-neg,1,1,889.9600000000792
sub-122,99,0,FALSE,left,avoid,neg,fungus13_crop.jpg,2,10,TRUE,98,2,518.14307,122,EAT                                    DON'T EAT,517.40485,497.23813,448.83435,left,2,right,right,not_eat,not_eat,avoid,neg,avoid-neg,1,1,738.2199999999139
sub-122,100,0,FALSE,left,avoid,neg,fungus36_crop.jpg,2,10,TRUE,99,2,520.1426,122,EAT                                    DON'T EAT,519.4233,497.23813,448.83435,left,2,right,right,not_eat,not_eat,avoid,neg,avoid-neg,1,1,719.2999999999884
sub-122,101,2,TRUE,left,avoid,neg,fungus22_crop.jpg,2,11,TRUE,100,2,538.2631,122,EAT                                    DON'T EAT,537.45483,533.43494,448.83435,left,2,right,right,not_eat,not_eat,approach,neg,approach-neg,1,1,808.2700000000186
sub-122,102,2,FALSE,left,approach,neg,insect31_crop.jpg,2,11,TRUE,101,1,540.2864,122,EAT                                    DON'T EAT,539.47314,533.43494,448.83435,left,1,left,left,eat,eat,approach,neg,approach-neg,1,1,813.2600000000093
sub-122,103,2,FALSE,left,approach,neg,insect30_crop.jpg,2,11,TRUE,102,1,542.12317,122,EAT                                    DON'T EAT,541.4915,533.43494,448.83435,left,1,left,left,eat,eat,approach,neg,approach-neg,1,1,631.6699999999255
sub-122,104,2,FALSE,left,approach,neg,insect22_crop.jpg,2,11,TRUE,103,1,544.3123,122,EAT                                    DON'T EAT,543.5096,533.43494,448.83435,left,1,left,left,eat,eat,approach,neg,approach-neg,1,1,802.7000000000698
sub-122,105,2,FALSE,left,approach,neg,insect37_crop.jpg,2,11,TRUE,104,1,546.2192,122,EAT                                    DON'T EAT,545.5284,533.43494,448.83435,left,1,left,left,eat,eat,approach,neg,approach-neg,1,1,690.7999999999302
sub-122,106,2,FALSE,left,approach,neg,insect34_crop.jpg,2,11,TRUE,105,1,548.1733,122,EAT                                    DON'T EAT,547.5467,533.43494,448.83435,left,1,left,left,eat,eat,approach,neg,approach-neg,1,1,626.6000000000931
sub-122,107,2,FALSE,left,approach,neg,insect15_crop.jpg,2,11,TRUE,106,1,550.1223,122,EAT                                    DON'T EAT,549.56476,533.43494,448.83435,left,1,left,left,eat,eat,approach,neg,approach-neg,1,1,557.5400000000373
sub-122,108,2,FALSE,left,approach,neg,insect13_crop.jpg,2,11,TRUE,107,1,552.1261,122,EAT                                    DON'T EAT,551.5832,533.43494,448.83435,left,1,left,left,eat,eat,approach,neg,approach-neg,1,1,542.8999999999069
sub-122,109,2,FALSE,left,approach,neg,insect23_crop.jpg,2,11,TRUE,108,1,554.3197,122,EAT                                    DON'T EAT,553.60156,533.43494,448.83435,left,1,left,left,eat,eat,approach,neg,approach-neg,1,1,718.140000000014
sub-122,110,2,TRUE,left,avoid,pos,meat8_crop.jpg,2,11,TRUE,109,2,556.5703,122,EAT                                    DON'T EAT,555.6198,533.43494,448.83435,left,2,right,right,not_eat,not_eat,approach,neg,approach-neg,1,1,950.4999999998836
sub-122,111,1,TRUE,left,avoid,pos,meat2_crop.jpg,2,12,TRUE,110,2,573.99927,122,EAT                                    DON'T EAT,573.0177,568.9975,448.83435,left,2,right,right,not_eat,not_eat,approach,neg,approach-neg,1,1,981.5700000000652
sub-122,112,1,FALSE,left,approach,neg,insect1_crop.jpg,2,12,TRUE,111,1,575.78674,122,EAT                                    DON'T EAT,575.03625,568.9975,448.83435,left,1,left,left,eat,eat,approach,neg,approach-neg,1,1,750.4899999999907
sub-122,113,1,TRUE,left,avoid,neg,fungus25_crop.jpg,2,12,TRUE,112,2,578.20135,122,EAT                                    DON'T EAT,577.0543,568.9975,448.83435,left,2,right,right,not_eat,not_eat,approach,neg,approach-neg,1,1,1147.0500000000466
sub-122,114,1,FALSE,left,approach,neg,insect35_crop.jpg,2,12,TRUE,113,1,580.1737,122,EAT                                    DON'T EAT,579.07275,568.9975,448.83435,left,1,left,left,eat,eat,approach,neg,approach-neg,1,1,1100.9500000000698
sub-122,115,1,FALSE,left,approach,neg,insect9_crop.jpg,2,12,TRUE,114,1,581.71405,122,EAT                                    DON'T EAT,581.09106,568.9975,448.83435,left,1,left,left,eat,eat,approach,neg,approach-neg,1,1,622.9900000001071
sub-122,116,1,FALSE,left,approach,neg,insect28_crop.jpg,2,12,TRUE,115,1,584.0557,122,EAT                                    DON'T EAT,583.10944,568.9975,448.83435,left,1,left,left,eat,eat,approach,neg,approach-neg,1,1,946.2600000000093
sub-122,117,1,FALSE,left,approach,neg,insect7_crop.jpg,2,12,TRUE,116,1,585.7407,122,EAT                                    DON'T EAT,585.12775,568.9975,448.83435,left,1,left,left,eat,eat,approach,neg,approach-neg,1,1,612.9499999999534
sub-122,118,1,FALSE,left,approach,neg,insect5_crop.jpg,2,12,TRUE,117,1,587.7195,122,EAT                                    DON'T EAT,587.14606,568.9975,448.83435,left,1,left,left,eat,eat,approach,neg,approach-neg,1,1,573.4399999999441
sub-122,119,1,FALSE,left,approach,neg,insect36_crop.jpg,2,12,TRUE,118,1,590.7377,122,EAT                                    DON'T EAT,589.1641,568.9975,448.83435,left,1,left,left,eat,eat,approach,neg,approach-neg,1,1,1573.6000000000931
sub-122,120,1,FALSE,left,approach,neg,insect38_crop.jpg,2,12,TRUE,119,1,592.1416,122,EAT                                    DON'T EAT,591.1827,568.9975,448.83435,left,1,left,left,eat,eat,approach,neg,approach-neg,1,1,958.9000000001397
sub-122,121,1,TRUE,left,approach,neg,insect17_crop.jpg,2,13,TRUE,120,1,612.1549,122,EAT                                    DON'T EAT,611.0991,607.07904,448.83435,left,1,left,left,eat,eat,avoid,pos,avoid-pos,1,1,1055.8000000000466
sub-122,122,1,FALSE,left,avoid,pos,meat39_crop.jpg,2,13,TRUE,121,2,614.03485,122,EAT                                    DON'T EAT,613.11774,607.07904,448.83435,left,2,right,right,not_eat,not_eat,avoid,pos,avoid-pos,1,1,917.109999999986
sub-122,123,1,FALSE,left,avoid,pos,meat7_crop.jpg,2,13,TRUE,122,2,616.0487,122,EAT                                    DON'T EAT,615.13605,607.07904,448.83435,left,2,right,right,not_eat,not_eat,avoid,pos,avoid-pos,1,1,912.6500000001397
sub-122,124,1,FALSE,left,avoid,pos,meat18_crop.jpg,2,13,TRUE,123,2,617.75507,122,EAT                                    DON'T EAT,617.1543,607.07904,448.83435,left,2,right,right,not_eat,not_eat,avoid,pos,avoid-pos,1,1,600.7700000000186
sub-122,125,1,TRUE,left,approach,pos,cake16_crop.jpg,2,13,TRUE,124,1,619.9087,122,EAT                                    DON'T EAT,619.1726,607.07904,448.83435,left,1,left,left,eat,eat,avoid,pos,avoid-pos,1,1,736.0999999999767
sub-122,126,1,FALSE,left,avoid,pos,meat40_crop.jpg,2,13,TRUE,125,2,621.9097,122,EAT                                    DON'T EAT,621.1909,607.07904,448.83435,left,2,right,right,not_eat,not_eat,avoid,pos,avoid-pos,1,1,718.8000000000466
sub-122,127,1,FALSE,left,avoid,pos,meat26_crop.jpg,2,13,TRUE,126,2,623.8532,122,EAT                                    DON'T EAT,623.2091,607.07904,448.83435,left,2,right,right,not_eat,not_eat,avoid,pos,avoid-pos,1,1,644.0999999999767
sub-122,128,1,FALSE,left,avoid,pos,meat10_crop.jpg,2,13,TRUE,127,2,625.92737,122,EAT                                    DON'T EAT,625.2278,607.07904,448.83435,left,2,right,right,not_eat,not_eat,avoid,pos,avoid-pos,1,1,699.5699999999488
sub-122,129,1,FALSE,left,avoid,pos,meat5_crop.jpg,2,13,TRUE,128,2,627.99646,122,EAT                                    DON'T EAT,627.2461,607.07904,448.83435,left,2,right,right,not_eat,not_eat,avoid,pos,avoid-pos,1,1,750.359999999986
sub-122,130,1,FALSE,left,avoid,pos,meat24_crop.jpg,2,13,TRUE,129,2,629.9292,122,EAT                                    DON'T EAT,629.2641,607.07904,448.83435,left,2,right,right,not_eat,not_eat,avoid,pos,avoid-pos,1,1,665.1000000000931
sub-122,131,3,TRUE,right,approach,neg,insect2_crop.jpg,2,14,TRUE,130,1,650.3733,122,EAT                                    DON'T EAT,649.1808,645.1608,448.83435,left,1,left,left,eat,eat,avoid,neg,avoid-neg,1,1,1192.5
sub-122,132,3,FALSE,right,avoid,neg,fungus5_crop.jpg,2,14,TRUE,131,2,652.3284,122,EAT                                    DON'T EAT,651.1993,645.1608,448.83435,left,2,right,right,not_eat,not_eat,avoid,neg,avoid-neg,1,1,1129.0999999999767
sub-122,133,3,FALSE,right,avoid,neg,fungus19_crop.jpg,2,14,TRUE,132,2,653.8808,122,EAT                                    DON'T EAT,653.21765,645.1608,448.83435,left,2,right,right,not_eat,not_eat,avoid,neg,avoid-neg,1,1,663.1500000000233
sub-122,134,3,FALSE,right,avoid,neg,fungus12_crop.jpg,2,14,TRUE,133,2,655.9192,122,EAT                                    DON'T EAT,655.23535,645.1608,448.83435,left,2,right,right,not_eat,not_eat,avoid,neg,avoid-neg,1,1,683.8499999999767
sub-122,135,3,FALSE,right,avoid,neg,fungus7_crop.jpg,2,14,TRUE,134,2,657.88367,122,EAT                                    DON'T EAT,657.25446,645.1608,448.83435,left,2,right,right,not_eat,not_eat,avoid,neg,avoid-neg,1,1,629.2100000000792
sub-122,136,3,FALSE,right,avoid,neg,fungus10_crop.jpg,2,14,TRUE,135,2,659.83234,122,EAT                                    DON'T EAT,659.2726,645.1608,448.83435,left,2,right,right,not_eat,not_eat,avoid,neg,avoid-neg,1,1,559.7400000001071
sub-122,137,3,TRUE,right,approach,pos,cake23_crop.jpg,2,14,TRUE,136,1,662.07245,122,EAT                                    DON'T EAT,661.2909,645.1608,448.83435,left,1,left,left,eat,eat,avoid,neg,avoid-neg,1,1,781.5500000000466
sub-122,138,3,FALSE,right,avoid,neg,fungus29_crop.jpg,2,14,TRUE,137,2,664.7764,122,EAT                                    DON'T EAT,663.3091,645.1608,448.83435,left,2,right,right,not_eat,not_eat,avoid,neg,avoid-neg,1,1,1467.3000000000466
sub-122,139,3,FALSE,right,avoid,neg,fungus2_crop.jpg,2,14,TRUE,138,2,666.12305,122,EAT                                    DON'T EAT,665.32776,645.1608,448.83435,left,2,right,right,not_eat,not_eat,avoid,neg,avoid-neg,1,1,795.2900000000373
sub-122,140,3,FALSE,right,avoid,neg,fungus18_crop.jpg,2,14,TRUE,139,2,668.0236,122,EAT                                    DON'T EAT,667.34607,645.1608,448.83435,left,2,right,right,not_eat,not_eat,avoid,neg,avoid-neg,1,1,677.5299999999115
sub-122,141,0,FALSE,right,approach,neg,insect26_crop.jpg,2,15,TRUE,140,1,688.20764,122,EAT                                    DON'T EAT,687.296,683.2759,448.83435,left,1,left,left,eat,eat,approach,neg,approach-neg,1,1,911.640000000014
sub-122,142,0,FALSE,right,approach,neg,insect30_crop.jpg,2,15,TRUE,141,1,689.90967,122,EAT                                    DON'T EAT,689.3141,683.2759,448.83435,left,1,left,left,eat,eat,approach,neg,approach-neg,1,1,595.5699999999488
sub-122,143,0,TRUE,right,avoid,pos,meat10_crop.jpg,2,15,TRUE,142,2,692.1605,122,EAT                                    DON'T EAT,691.3326,683.2759,448.83435,left,2,right,right,not_eat,not_eat,approach,neg,approach-neg,1,1,827.9000000000233
sub-122,144,0,FALSE,right,approach,neg,insect4_crop.jpg,2,15,TRUE,143,1,694.04565,122,EAT                                    DON'T EAT,693.3508,683.2759,448.83435,left,1,left,left,eat,eat,approach,neg,approach-neg,1,1,694.8499999999767
sub-122,145,0,TRUE,right,avoid,neg,fungus25_crop.jpg,2,15,TRUE,144,2,696.0556,122,EAT                                    DON'T EAT,695.36896,683.2759,448.83435,left,2,right,right,not_eat,not_eat,approach,neg,approach-neg,1,1,686.640000000014
sub-122,146,0,FALSE,right,approach,neg,insect38_crop.jpg,2,15,TRUE,145,1,698.1478,122,EAT                                    DON'T EAT,697.3877,683.2759,448.83435,left,1,left,left,eat,eat,approach,neg,approach-neg,1,1,760.0999999999767
sub-122,147,0,FALSE,right,approach,neg,insect23_crop.jpg,2,15,TRUE,146,1,700.23065,122,EAT                                    DON'T EAT,699.40594,683.2759,448.83435,left,1,left,left,eat,eat,approach,neg,approach-neg,1,1,824.7100000000792
sub-122,148,0,FALSE,right,approach,neg,insect13_crop.jpg,2,15,TRUE,147,1,702.13135,122,EAT                                    DON'T EAT,701.4244,683.2759,448.83435,left,1,left,left,eat,eat,approach,neg,approach-neg,1,1,706.9499999999534
sub-122,149,0,FALSE,right,approach,neg,insect19_crop.jpg,2,15,TRUE,148,1,704.1706,122,EAT                                    DON'T EAT,703.44226,683.2759,448.83435,left,1,left,left,eat,eat,approach,neg,approach-neg,1,1,728.3400000000838
sub-122,150,0,FALSE,right,approach,neg,insect10_crop.jpg,2,15,TRUE,149,1,706.0344,122,EAT                                    DON'T EAT,705.46094,683.2759,448.83435,left,1,left,left,eat,eat,approach,neg,approach-neg,1,1,573.4599999999627
sub-122,151,2,FALSE,right,avoid,neg,fungus37_crop.jpg,2,16,TRUE,150,2,726.8214,122,EAT                                    DON'T EAT,725.3607,721.3407,448.83435,left,2,right,right,not_eat,not_eat,avoid,neg,avoid-neg,1,1,1460.7000000000698
sub-122,152,2,FALSE,right,avoid,neg,fungus3_crop.jpg,2,16,TRUE,151,2,728.24445,122,EAT                                    DON'T EAT,727.3789,721.3407,448.83435,left,2,right,right,not_eat,not_eat,avoid,neg,avoid-neg,1,1,865.5500000000466
sub-122,153,2,FALSE,right,avoid,neg,fungus26_crop.jpg,2,16,TRUE,152,2,730.135,122,EAT                                    DON'T EAT,729.3975,721.3407,448.83435,left,2,right,right,not_eat,not_eat,avoid,neg,avoid-neg,1,1,737.5
sub-122,154,2,TRUE,right,approach,neg,insect14_crop.jpg,2,16,TRUE,153,1,732.15564,122,EAT                                    DON'T EAT,731.41583,721.3407,448.83435,left,1,left,left,eat,eat,avoid,neg,avoid-neg,1,1,739.809999999823
sub-122,155,2,FALSE,right,avoid,neg,fungus40_crop.jpg,2,16,TRUE,154,2,734.1864,122,EAT                                    DON'T EAT,733.43414,721.3407,448.83435,left,2,right,right,not_eat,not_eat,avoid,neg,avoid-neg,1,1,752.2600000000093
sub-122,156,2,FALSE,right,avoid,neg,fungus33_crop.jpg,2,16,TRUE,155,2,736.1962,122,EAT                                    DON'T EAT,735.45245,721.3407,448.83435,left,2,right,right,not_eat,not_eat,avoid,neg,avoid-neg,1,1,743.75
sub-122,157,2,FALSE,right,avoid,neg,fungus9_crop.jpg,2,16,TRUE,156,2,738.07263,122,EAT                                    DON'T EAT,737.47076,721.3407,448.83435,left,2,right,right,not_eat,not_eat,avoid,neg,avoid-neg,1,1,601.8699999999953
sub-122,158,2,FALSE,right,avoid,neg,fungus28_crop.jpg,2,16,TRUE,157,2,740.3323,122,EAT                                    DON'T EAT,739.4889,721.3407,448.83435,left,2,right,right,not_eat,not_eat,avoid,neg,avoid-neg,1,1,843.4000000001397
sub-122,159,2,TRUE,right,approach,pos,cake21_crop.jpg,2,16,TRUE,158,1,742.49915,122,EAT                                    DON'T EAT,741.5076,721.3407,448.83435,left,1,left,left,eat,eat,avoid,neg,avoid-neg,1,1,991.5500000000466
sub-122,160,2,FALSE,right,avoid,neg,fungus16_crop.jpg,2,16,TRUE,159,2,744.29504,122,EAT                                    DON'T EAT,743.52594,721.3407,448.83435,left,2,right,right,not_eat,not_eat,avoid,neg,avoid-neg,1,1,769.0999999999767
sub-122,161,3,FALSE,right,avoid,pos,meat9_crop.jpg,3,17,TRUE,160,2,834.86163,122,EAT                                    DON'T EAT,833.76764,829.74713,819.4802,right,2,right,right,not_eat,not_eat,avoid,pos,avoid-pos,1,1,1093.9899999999907
sub-122,162,3,FALSE,right,avoid,pos,meat3_crop.jpg,3,17,TRUE,161,2,836.5041,122,EAT                                    DON'T EAT,835.78564,829.74713,819.4802,right,2,right,right,not_eat,not_eat,avoid,pos,avoid-pos,1,1,718.4600000000792
sub-122,163,3,FALSE,right,avoid,pos,meat16_crop.jpg,3,17,TRUE,162,2,838.3759,122,EAT                                    DON'T EAT,837.8042,829.74713,819.4802,right,2,right,right,not_eat,not_eat,avoid,pos,avoid-pos,1,1,571.6999999999534
sub-122,164,3,FALSE,right,avoid,pos,meat34_crop.jpg,3,17,TRUE,163,2,840.4048,122,EAT                                    DON'T EAT,839.8225,829.74713,819.4802,right,2,right,right,not_eat,not_eat,avoid,pos,avoid-pos,1,1,582.3000000000466
sub-122,165,3,TRUE,right,approach,neg,insect34_crop.jpg,3,17,TRUE,164,1,842.683,122,EAT                                    DON'T EAT,841.84076,829.74713,819.4802,right,1,left,left,eat,eat,avoid,pos,avoid-pos,1,1,842.2399999999907
sub-122,166,3,TRUE,right,approach,pos,cake1_crop.jpg,3,17,TRUE,165,1,844.7636,122,EAT                                    DON'T EAT,843.85895,829.74713,819.4802,right,1,left,left,eat,eat,avoid,pos,avoid-pos,1,1,904.6499999999069
sub-122,167,3,FALSE,right,avoid,pos,meat5_crop.jpg,3,17,TRUE,166,2,846.78644,122,EAT                                    DON'T EAT,845.8776,829.74713,819.4802,right,2,right,right,not_eat,not_eat,avoid,pos,avoid-pos,1,1,908.8399999999674
sub-122,168,3,FALSE,right,avoid,pos,meat23_crop.jpg,3,17,TRUE,167,2,848.54047,122,EAT                                    DON'T EAT,847.89594,829.74713,819.4802,right,2,right,right,not_eat,not_eat,avoid,pos,avoid-pos,1,1,644.5300000000279
sub-122,169,3,FALSE,right,avoid,pos,meat1_crop.jpg,3,17,TRUE,168,2,851.49023,122,EAT                                    DON'T EAT,849.9139,829.74713,819.4802,right,2,right,right,not_eat,not_eat,avoid,pos,avoid-pos,1,1,1576.329999999958
sub-122,170,3,FALSE,right,avoid,pos,meat22_crop.jpg,3,17,TRUE,169,2,852.63025,122,EAT                                    DON'T EAT,851.93256,829.74713,819.4802,right,2,right,right,not_eat,not_eat,avoid,pos,avoid-pos,1,1,697.6900000000605
sub-122,171,2,FALSE,left,avoid,neg,fungus3_crop.jpg,3,18,TRUE,170,2,871.1176,122,EAT                                    DON'T EAT,870.29785,866.2779,819.4802,right,2,right,right,not_eat,not_eat,avoid,neg,avoid-neg,1,1,819.75
sub-122,172,2,FALSE,left,avoid,neg,fungus35_crop.jpg,3,18,TRUE,171,2,873.2134,122,EAT                                    DON'T EAT,872.3162,866.2779,819.4802,right,2,right,right,not_eat,not_eat,avoid,neg,avoid-neg,1,1,897.2000000000698
sub-122,173,2,TRUE,left,approach,pos,cake1_crop.jpg,3,18,TRUE,172,1,875.1137,122,EAT                                    DON'T EAT,874.33453,866.2779,819.4802,right,1,left,left,eat,eat,avoid,neg,avoid-neg,1,1,779.1699999999255
sub-122,174,2,FALSE,left,avoid,neg,fungus15_crop.jpg,3,18,TRUE,173,2,877.2409,122,EAT                                    DON'T EAT,876.3528,866.2779,819.4802,right,2,right,right,not_eat,not_eat,avoid,neg,avoid-neg,1,1,888.0999999999767
sub-122,175,2,FALSE,left,avoid,neg,fungus12_crop.jpg,3,18,TRUE,174,2,878.98553,122,EAT                                    DON'T EAT,878.37115,866.2779,819.4802,right,2,right,right,not_eat,not_eat,avoid,neg,avoid-neg,1,1,614.3800000001211
sub-122,176,2,FALSE,left,avoid,neg,fungus30_crop.jpg,3,18,TRUE,175,2,881.2538,122,EAT                                    DON'T EAT,880.38947,866.2779,819.4802,right,2,right,right,not_eat,not_eat,avoid,neg,avoid-neg,1,1,864.3299999999581
sub-122,177,2,TRUE,left,approach,neg,insect21_crop.jpg,3,18,TRUE,176,1,883.1396,122,EAT                                    DON'T EAT,882.40796,866.2779,819.4802,right,1,left,left,eat,eat,avoid,neg,avoid-neg,1,1,731.640000000014
sub-122,178,2,FALSE,left,avoid,neg,fungus33_crop.jpg,3,18,TRUE,177,2,885.30176,122,EAT                                    DON'T EAT,884.42633,866.2779,819.4802,right,2,right,right,not_eat,not_eat,avoid,neg,avoid-neg,1,1,875.4299999999348
sub-122,179,2,FALSE,left,avoid,neg,fungus16_crop.jpg,3,18,TRUE,178,2,887.1886,122,EAT                                    DON'T EAT,886.44464,866.2779,819.4802,right,2,right,right,not_eat,not_eat,avoid,neg,avoid-neg,1,1,743.9599999999627
sub-122,180,2,FALSE,left,avoid,neg,fungus2_crop.jpg,3,18,TRUE,179,2,889.1822,122,EAT                                    DON'T EAT,888.4629,866.2779,819.4802,right,2,right,right,not_eat,not_eat,avoid,neg,avoid-neg,1,1,719.2999999999302
sub-122,181,0,FALSE,left,approach,pos,cake20_crop.jpg,3,19,TRUE,180,1,906.9012,122,EAT                                    DON'T EAT,905.894,901.8741,819.4802,right,1,left,left,eat,eat,approach,pos,approach-pos,1,1,1007.2000000000698
sub-122,182,0,FALSE,left,approach,pos,cake2_crop.jpg,3,19,TRUE,181,1,908.5494,122,EAT                                    DON'T EAT,907.91235,901.8741,819.4802,right,1,left,left,eat,eat,approach,pos,approach-pos,1,1,637.0500000000466
sub-122,183,0,FALSE,left,approach,pos,cake9_crop.jpg,3,19,TRUE,182,1,910.6188,122,EAT                                    DON'T EAT,909.9306,901.8741,819.4802,right,1,left,left,eat,eat,approach,pos,approach-pos,1,1,688.1999999999534
sub-122,184,0,FALSE,left,approach,pos,cake37_crop.jpg,3,19,TRUE,183,1,913.0897,122,EAT                                    DON'T EAT,911.9489,901.8741,819.4802,right,1,left,left,eat,eat,approach,pos,approach-pos,1,1,1140.7999999999302
sub-122,185,0,FALSE,left,approach,pos,cake36_crop.jpg,3,19,TRUE,184,1,914.5245,122,EAT                                    DON'T EAT,913.9675,901.8741,819.4802,right,1,left,left,eat,eat,approach,pos,approach-pos,1,1,557
sub-122,186,0,TRUE,left,avoid,pos,meat21_crop.jpg,3,19,TRUE,185,2,916.8528,122,EAT                                    DON'T EAT,915.98584,901.8741,819.4802,right,2,right,right,not_eat,not_eat,approach,pos,approach-pos,1,1,866.9599999999627
sub-122,187,0,FALSE,left,approach,pos,cake31_crop.jpg,3,19,TRUE,186,1,918.7634,122,EAT                                    DON'T EAT,918.0041,901.8741,819.4802,right,1,left,left,eat,eat,approach,pos,approach-pos,1,1,759.3000000000466
sub-122,188,0,FALSE,left,approach,pos,cake3_crop.jpg,3,19,TRUE,187,1,920.72845,122,EAT                                    DON'T EAT,920.0225,901.8741,819.4802,right,1,left,left,eat,eat,approach,pos,approach-pos,1,1,705.9499999999534
sub-122,189,0,FALSE,left,approach,pos,cake14_crop.jpg,3,19,TRUE,188,1,922.66394,122,EAT                                    DON'T EAT,922.0406,901.8741,819.4802,right,1,left,left,eat,eat,approach,pos,approach-pos,1,1,623.3399999999674
sub-122,190,0,TRUE,left,avoid,neg,fungus34_crop.jpg,3,19,TRUE,189,2,924.8409,122,EAT                                    DON'T EAT,924.05884,901.8741,819.4802,right,2,right,right,not_eat,not_eat,approach,pos,approach-pos,1,1,782.0599999999395
sub-122,191,3,FALSE,right,approach,pos,cake33_crop.jpg,3,20,TRUE,190,1,945.04504,122,EAT                                    DON'T EAT,943.77545,939.75543,819.4802,right,1,left,left,eat,eat,approach,pos,approach-pos,1,1,1269.5899999999674
sub-122,192,3,TRUE,right,avoid,neg,fungus31_crop.jpg,3,20,TRUE,191,2,946.6509,122,EAT                                    DON'T EAT,945.79376,939.75543,819.4802,right,2,right,right,not_eat,not_eat,approach,pos,approach-pos,1,1,857.140000000014
sub-122,193,3,TRUE,right,avoid,pos,meat13_crop.jpg,3,20,TRUE,192,2,948.87976,122,EAT                                    DON'T EAT,947.8122,939.75543,819.4802,right,2,right,right,not_eat,not_eat,approach,pos,approach-pos,1,1,1067.5600000000559
sub-122,194,3,FALSE,right,approach,pos,cake3_crop.jpg,3,20,TRUE,193,1,950.6722,122,EAT                                    DON'T EAT,949.8304,939.75543,819.4802,right,1,left,left,eat,eat,approach,pos,approach-pos,1,1,841.7999999999302
sub-122,195,3,FALSE,right,approach,pos,cake40_crop.jpg,3,20,TRUE,194,1,952.60004,122,EAT                                    DON'T EAT,951.8488,939.75543,819.4802,right,1,left,left,eat,eat,approach,pos,approach-pos,1,1,751.2400000001071
sub-122,196,3,FALSE,right,approach,pos,cake27_crop.jpg,3,20,TRUE,195,1,954.52405,122,EAT                                    DON'T EAT,953.8674,939.75543,819.4802,right,1,left,left,eat,eat,approach,pos,approach-pos,1,1,656.6500000000233
sub-122,197,3,FALSE,right,approach,pos,cake7_crop.jpg,3,20,TRUE,196,1,956.57153,122,EAT                                    DON'T EAT,955.8852,939.75543,819.4802,right,1,left,left,eat,eat,approach,pos,approach-pos,1,1,686.3299999999581
sub-122,198,3,FALSE,right,approach,pos,cake16_crop.jpg,3,20,TRUE,197,1,958.5199,122,EAT                                    DON'T EAT,957.9033,939.75543,819.4802,right,1,left,left,eat,eat,approach,pos,approach-pos,1,1,616.6000000000931
sub-122,199,3,FALSE,right,approach,pos,cake32_crop.jpg,3,20,TRUE,198,1,961.0117,122,EAT                                    DON'T EAT,959.9222,939.75543,819.4802,right,1,left,left,eat,eat,approach,pos,approach-pos,1,1,1089.5000000001164
sub-122,200,3,FALSE,right,approach,pos,cake36_crop.jpg,3,20,TRUE,199,1,963.2362,122,EAT                                    DON'T EAT,961.9403,939.75543,819.4802,right,1,left,left,eat,eat,approach,pos,approach-pos,1,1,1295.9000000001397
sub-122,201,0,FALSE,right,avoid,neg,fungus6_crop.jpg,3,21,TRUE,200,2,982.17,122,EAT                                    DON'T EAT,981.2732,977.25305,819.4802,right,2,right,right,not_eat,not_eat,avoid,neg,avoid-neg,1,1,896.8000000000466
sub-122,202,0,FALSE,right,avoid,neg,fungus30_crop.jpg,3,21,TRUE,201,2,983.9887,122,EAT                                    DON'T EAT,983.29156,977.25305,819.4802,right,2,right,right,not_eat,not_eat,avoid,neg,avoid-neg,1,1,697.1399999998976
sub-122,203,0,FALSE,right,avoid,neg,fungus11_crop.jpg,3,21,TRUE,202,2,986.0487,122,EAT                                    DON'T EAT,985.31006,977.25305,819.4802,right,2,right,right,not_eat,not_eat,avoid,neg,avoid-neg,1,1,738.640000000014
sub-122,204,0,FALSE,right,avoid,neg,fungus39_crop.jpg,3,21,TRUE,203,2,987.97253,122,EAT                                    DON'T EAT,987.3285,977.25305,819.4802,right,2,right,right,not_eat,not_eat,avoid,neg,avoid-neg,1,1,644.0300000000279
sub-122,205,0,TRUE,right,approach,pos,cake35_crop.jpg,3,21,TRUE,204,1,990.14014,122,EAT                                    DON'T EAT,989.34656,977.25305,819.4802,right,1,left,left,eat,eat,avoid,neg,avoid-neg,1,1,793.5800000000745
sub-122,206,0,FALSE,right,avoid,neg,fungus4_crop.jpg,3,21,TRUE,205,2,992.18005,122,EAT                                    DON'T EAT,991.3649,977.25305,819.4802,right,2,right,right,not_eat,not_eat,avoid,neg,avoid-neg,1,1,815.1500000000233
sub-122,207,0,FALSE,right,avoid,neg,fungus17_crop.jpg,3,21,TRUE,206,2,994.08136,122,EAT                                    DON'T EAT,993.3833,977.25305,819.4802,right,2,right,right,not_eat,not_eat,avoid,neg,avoid-neg,1,1,698.0600000000559
sub-122,208,0,TRUE,right,approach,neg,insect22_crop.jpg,3,21,TRUE,207,1,996.2037,122,EAT                                    DON'T EAT,995.4016,977.25305,819.4802,right,1,left,left,eat,eat,avoid,neg,avoid-neg,1,1,802.1000000000931
sub-122,209,0,FALSE,right,avoid,neg,fungus34_crop.jpg,3,21,TRUE,208,2,998.15857,122,EAT                                    DON'T EAT,997.42,977.25305,819.4802,right,2,right,right,not_eat,not_eat,avoid,neg,avoid-neg,1,1,738.5700000000652
sub-122,210,0,FALSE,right,avoid,neg,fungus13_crop.jpg,3,21,TRUE,209,2,1000.13855,122,EAT                                    DON'T EAT,999.4382,977.25305,819.4802,right,2,right,right,not_eat,not_eat,avoid,neg,avoid-neg,1,1,700.3499999999767
sub-122,211,1,FALSE,left,approach,pos,cake11_crop.jpg,3,22,TRUE,210,1,1016.3781,122,EAT                                    DON'T EAT,1015.5185,1011.4984,819.4802,right,1,left,left,eat,eat,approach,pos,approach-pos,1,1,859.5999999999767
sub-122,212,1,TRUE,left,avoid,neg,fungus37_crop.jpg,3,22,TRUE,211,2,1018.6932,122,EAT                                    DON'T EAT,1017.53687,1011.4984,819.4802,right,2,right,right,not_eat,not_eat,approach,pos,approach-pos,1,1,1156.3300000000745
sub-122,213,1,FALSE,left,approach,pos,cake21_crop.jpg,3,22,TRUE,212,1,1020.42175,122,EAT                                    DON'T EAT,1019.555,1011.4984,819.4802,right,1,left,left,eat,eat,approach,pos,approach-pos,1,1,866.75
sub-122,214,1,FALSE,left,approach,pos,cake24_crop.jpg,3,22,TRUE,213,1,1022.4296,122,EAT                                    DON'T EAT,1021.5733,1011.4984,819.4802,right,1,left,left,eat,eat,approach,pos,approach-pos,1,1,856.3000000000466
sub-122,215,1,FALSE,left,approach,pos,cake39_crop.jpg,3,22,TRUE,214,1,1024.3832,122,EAT                                    DON'T EAT,1023.5918,1011.4984,819.4802,right,1,left,left,eat,eat,approach,pos,approach-pos,1,1,791.3999999999069
sub-122,216,1,FALSE,left,approach,pos,cake35_crop.jpg,3,22,TRUE,215,1,1026.3805,122,EAT                                    DON'T EAT,1025.6101,1011.4984,819.4802,right,1,left,left,eat,eat,approach,pos,approach-pos,1,1,770.3999999999069
sub-122,217,1,FALSE,left,approach,pos,cake33_crop.jpg,3,22,TRUE,216,1,1028.3564,122,EAT                                    DON'T EAT,1027.6285,1011.4984,819.4802,right,1,left,left,eat,eat,approach,pos,approach-pos,1,1,727.8999999999069
sub-122,218,1,TRUE,left,avoid,pos,meat34_crop.jpg,3,22,TRUE,217,2,1030.5359,122,EAT                                    DON'T EAT,1029.6469,1011.4984,819.4802,right,2,right,right,not_eat,not_eat,approach,pos,approach-pos,1,1,889.0000000002328
sub-122,219,1,FALSE,left,approach,pos,cake34_crop.jpg,3,22,TRUE,218,1,1032.9933,122,EAT                                    DON'T EAT,1031.665,1011.4984,819.4802,right,1,left,left,eat,eat,approach,pos,approach-pos,1,1,1328.3000000000466
sub-122,220,1,FALSE,left,approach,pos,cake30_crop.jpg,3,22,TRUE,219,1,1034.9385,122,EAT                                    DON'T EAT,1033.6836,1011.4984,819.4802,right,1,left,left,eat,eat,approach,pos,approach-pos,1,1,1254.8999999999069
sub-122,221,0,FALSE,left,avoid,pos,meat17_crop.jpg,3,23,TRUE,220,2,1050.8662,122,EAT                                    DON'T EAT,1049.747,1045.7268,819.4802,right,2,right,right,not_eat,not_eat,avoid,pos,avoid-pos,1,1,1119.1999999999534
sub-122,222,0,FALSE,left,avoid,pos,meat6_crop.jpg,3,23,TRUE,221,2,1052.5564,122,EAT                                    DON'T EAT,1051.765,1045.7268,819.4802,right,2,right,right,not_eat,not_eat,avoid,pos,avoid-pos,1,1,791.3999999999069
sub-122,223,0,FALSE,left,avoid,pos,meat13_crop.jpg,3,23,TRUE,222,2,1054.5527,122,EAT                                    DON'T EAT,1053.7834,1045.7268,819.4802,right,2,right,right,not_eat,not_eat,avoid,pos,avoid-pos,1,1,769.2999999998137
sub-122,224,0,FALSE,left,avoid,pos,meat19_crop.jpg,3,23,TRUE,223,2,1056.5878,122,EAT                                    DON'T EAT,1055.8018,1045.7268,819.4802,right,2,right,right,not_eat,not_eat,avoid,pos,avoid-pos,1,1,786
sub-122,225,0,FALSE,left,avoid,pos,meat31_crop.jpg,3,23,TRUE,224,2,1058.5054,122,EAT                                    DON'T EAT,1057.8202000000001,1045.7268,819.4802,right,2,right,right,not_eat,not_eat,avoid,pos,avoid-pos,1,1,685.1999999997206
sub-122,226,0,FALSE,left,avoid,pos,meat15_crop.jpg,3,23,TRUE,225,2,1060.6411,122,EAT                                    DON'T EAT,1059.8386,1045.7268,819.4802,right,2,right,right,not_eat,not_eat,avoid,pos,avoid-pos,1,1,802.5
sub-122,227,0,TRUE,left,approach,neg,insect27_crop.jpg,3,23,TRUE,226,1,1062.8477,122,EAT                                    DON'T EAT,1061.8569,1045.7268,819.4802,right,1,left,left,eat,eat,avoid,pos,avoid-pos,1,1,990.8000000000466
sub-122,228,0,FALSE,left,avoid,pos,meat27_crop.jpg,3,23,TRUE,227,2,1064.6877,122,EAT                                    DON'T EAT,1063.8751,1045.7268,819.4802,right,2,right,right,not_eat,not_eat,avoid,pos,avoid-pos,1,1,812.6000000000931
sub-122,229,0,TRUE,left,approach,pos,cake12_crop.jpg,3,23,TRUE,228,1,1066.7566,122,EAT                                    DON'T EAT,1065.8936,1045.7268,819.4802,right,1,left,left,eat,eat,avoid,pos,avoid-pos,1,1,862.9999999997672
sub-122,230,0,FALSE,left,avoid,pos,meat29_crop.jpg,3,23,TRUE,229,2,1068.7549,122,EAT                                    DON'T EAT,1067.9119,1045.7268,819.4802,right,2,right,right,not_eat,not_eat,avoid,pos,avoid-pos,1,1,842.9999999997672
sub-122,231,1,FALSE,left,avoid,neg,fungus19_crop.jpg,3,24,TRUE,230,2,1087.3091,122,EAT                                    DON'T EAT,1086.444,1082.4238,819.4802,right,2,right,right,not_eat,not_eat,avoid,neg,avoid-neg,1,1,865.0999999998603
sub-122,232,1,FALSE,left,avoid,neg,fungus20_crop.jpg,3,24,TRUE,231,2,1089.2029,122,EAT                                    DON'T EAT,1088.4618,1082.4238,819.4802,right,2,right,right,not_eat,not_eat,avoid,neg,avoid-neg,1,1,741.0999999998603
sub-122,233,1,FALSE,left,avoid,neg,fungus23_crop.jpg,3,24,TRUE,232,2,1091.1354,122,EAT                                    DON'T EAT,1090.4803,1082.4238,819.4802,right,2,right,right,not_eat,not_eat,avoid,neg,avoid-neg,1,1,655.0999999998603
sub-122,234,1,FALSE,left,avoid,neg,fungus4_crop.jpg,3,24,TRUE,233,2,1093.0244,122,EAT                                    DON'T EAT,1092.4987,1082.4238,819.4802,right,2,right,right,not_eat,not_eat,avoid,neg,avoid-neg,1,1,525.6999999997206
sub-122,235,1,TRUE,left,approach,neg,insect40_crop.jpg,3,24,TRUE,234,2,1095.0233,122,EAT                                    DON'T EAT,1094.5175,1082.4238,819.4802,right,2,right,right,not_eat,not_eat,avoid,neg,avoid-neg,0,0,505.80000000004657
sub-122,236,1,FALSE,left,avoid,neg,fungus40_crop.jpg,3,24,TRUE,235,2,1097.8246,122,EAT                                    DON'T EAT,1096.5356,1082.4238,819.4802,right,2,right,right,not_eat,not_eat,avoid,neg,avoid-neg,1,1,1289
sub-122,237,1,FALSE,left,avoid,neg,fungus31_crop.jpg,3,24,TRUE,236,2,1099.5956,122,EAT                                    DON'T EAT,1098.554,1082.4238,819.4802,right,2,right,right,not_eat,not_eat,avoid,neg,avoid-neg,1,1,1041.6000000000931
sub-122,238,1,FALSE,left,avoid,neg,fungus26_crop.jpg,3,24,TRUE,237,2,1101.4285,122,EAT                                    DON'T EAT,1100.5724,1082.4238,819.4802,right,2,right,right,not_eat,not_eat,avoid,neg,avoid-neg,1,1,856.1000000000931
sub-122,239,1,TRUE,left,approach,pos,cake4_crop.jpg,3,24,TRUE,238,1,1103.5444,122,EAT                                    DON'T EAT,1102.5907,1082.4238,819.4802,right,1,left,left,eat,eat,avoid,neg,avoid-neg,1,1,953.6999999999534
sub-122,240,1,FALSE,left,avoid,neg,fungus5_crop.jpg,3,24,TRUE,239,2,1105.7877,122,EAT                                    DON'T EAT,1104.6088,1082.4238,819.4802,right,2,right,right,not_eat,not_eat,avoid,neg,avoid-neg,1,1,1178.9000000001397
sub-122,241,3,FALSE,left,avoid,pos,meat16_crop.jpg,4,25,TRUE,240,2,1211.901,122,EAT                                    DON'T EAT,1210.9303,1206.9108,1196.4823,left,2,right,right,not_eat,not_eat,avoid,pos,avoid-pos,1,1,970.6999999999534
sub-122,242,3,FALSE,left,avoid,pos,meat4_crop.jpg,4,25,TRUE,241,2,1213.7413,122,EAT                                    DON'T EAT,1212.9487,1206.9108,1196.4823,left,2,right,right,not_eat,not_eat,avoid,pos,avoid-pos,1,1,792.5999999998603
sub-122,243,3,FALSE,left,avoid,pos,meat33_crop.jpg,4,25,TRUE,242,2,1215.8219,122,EAT                                    DON'T EAT,1214.9675,1206.9108,1196.4823,left,2,right,right,not_eat,not_eat,avoid,pos,avoid-pos,1,1,854.3999999999069
sub-122,244,3,FALSE,left,avoid,pos,meat14_crop.jpg,4,25,TRUE,243,2,1217.8302,122,EAT                                    DON'T EAT,1216.9856,1206.9108,1196.4823,left,2,right,right,not_eat,not_eat,avoid,pos,avoid-pos,1,1,844.6000000000931
sub-122,245,3,FALSE,left,avoid,pos,meat30_crop.jpg,4,25,TRUE,244,2,1219.7007,122,EAT                                    DON'T EAT,1219.0039,1206.9108,1196.4823,left,2,right,right,not_eat,not_eat,avoid,pos,avoid-pos,1,1,696.8000000002794
sub-122,246,3,FALSE,left,avoid,pos,meat11_crop.jpg,4,25,TRUE,245,2,1221.7693,122,EAT                                    DON'T EAT,1221.0223,1206.9108,1196.4823,left,2,right,right,not_eat,not_eat,avoid,pos,avoid-pos,1,1,746.9999999997672
sub-122,247,3,TRUE,left,approach,pos,cake15_crop.jpg,4,25,TRUE,246,1,1223.9486,122,EAT                                    DON'T EAT,1223.0406,1206.9108,1196.4823,left,1,left,left,eat,eat,avoid,pos,avoid-pos,1,1,907.9999999997672
sub-122,248,3,FALSE,left,avoid,pos,meat1_crop.jpg,4,25,TRUE,247,2,1226.6658,122,EAT                                    DON'T EAT,1225.0588,1206.9108,1196.4823,left,2,right,right,not_eat,not_eat,avoid,pos,avoid-pos,1,1,1607
sub-122,249,3,FALSE,left,avoid,pos,meat20_crop.jpg,4,25,TRUE,248,2,1228.0239,122,EAT                                    DON'T EAT,1227.077,1206.9108,1196.4823,left,2,right,right,not_eat,not_eat,avoid,pos,avoid-pos,1,1,946.8999999999069
sub-122,250,3,TRUE,left,approach,neg,insect39_crop.jpg,4,25,TRUE,249,1,1230.0027,122,EAT                                    DON'T EAT,1229.0957,1206.9108,1196.4823,left,1,left,left,eat,eat,avoid,pos,avoid-pos,1,1,906.9999999997672
sub-122,251,1,FALSE,right,avoid,neg,fungus32_crop.jpg,4,26,TRUE,250,2,1247.1711,122,EAT                                    DON'T EAT,1246.2266,1242.2067,1196.4823,left,2,right,right,not_eat,not_eat,avoid,neg,avoid-neg,1,1,944.5000000002328
sub-122,252,1,FALSE,right,avoid,neg,fungus15_crop.jpg,4,26,TRUE,251,2,1249.1964,122,EAT                                    DON'T EAT,1248.2449,1242.2067,1196.4823,left,2,right,right,not_eat,not_eat,avoid,neg,avoid-neg,1,1,951.5000000002328
sub-122,253,1,FALSE,right,avoid,neg,fungus8_crop.jpg,4,26,TRUE,252,2,1251.2444,122,EAT                                    DON'T EAT,1250.2633,1242.2067,1196.4823,left,2,right,right,not_eat,not_eat,avoid,neg,avoid-neg,1,1,981.1000000000931
sub-122,254,1,FALSE,right,avoid,neg,fungus38_crop.jpg,4,26,TRUE,253,2,1253.1055,122,EAT                                    DON'T EAT,1252.2816,1242.2067,1196.4823,left,2,right,right,not_eat,not_eat,avoid,neg,avoid-neg,1,1,823.8999999999069
sub-122,255,1,FALSE,right,avoid,neg,fungus35_crop.jpg,4,26,TRUE,254,2,1255.0157,122,EAT                                    DON'T EAT,1254.3,1242.2067,1196.4823,left,2,right,right,not_eat,not_eat,avoid,neg,avoid-neg,1,1,715.6999999999534
sub-122,256,1,TRUE,right,approach,pos,cake8_crop.jpg,4,26,TRUE,255,1,1257.2397,122,EAT                                    DON'T EAT,1256.3177,1242.2067,1196.4823,left,1,left,left,eat,eat,avoid,neg,avoid-neg,1,1,922.0000000002328
sub-122,257,1,FALSE,right,avoid,neg,fungus21_crop.jpg,4,26,TRUE,256,2,1259.0331,122,EAT                                    DON'T EAT,1258.3365,1242.2067,1196.4823,left,2,right,right,not_eat,not_eat,avoid,neg,avoid-neg,1,1,696.6000000000931
sub-122,258,1,TRUE,right,approach,neg,insect29_crop.jpg,4,26,TRUE,257,1,1261.2687,122,EAT                                    DON'T EAT,1260.3545,1242.2067,1196.4823,left,1,left,left,eat,eat,avoid,neg,avoid-neg,1,1,914.2000000001863
sub-122,259,1,FALSE,right,avoid,neg,fungus27_crop.jpg,4,26,TRUE,258,2,1263.02,122,EAT                                    DON'T EAT,1262.3734,1242.2067,1196.4823,left,2,right,right,not_eat,not_eat,avoid,neg,avoid-neg,1,1,646.6000000000931
sub-122,260,1,FALSE,right,avoid,neg,fungus23_crop.jpg,4,26,TRUE,259,2,1265.0692,122,EAT                                    DON'T EAT,1264.3916,1242.2067,1196.4823,left,2,right,right,not_eat,not_eat,avoid,neg,avoid-neg,1,1,677.6000000000931
sub-122,261,2,TRUE,right,avoid,neg,fungus22_crop.jpg,4,27,TRUE,260,2,1285.156,122,EAT                                    DON'T EAT,1284.3083,1280.2882,1196.4823,left,2,right,right,not_eat,not_eat,approach,neg,approach-neg,1,1,847.7000000001863
sub-122,262,2,FALSE,right,approach,neg,insect7_crop.jpg,4,27,TRUE,261,1,1287.075,122,EAT                                    DON'T EAT,1286.326,1280.2882,1196.4823,left,1,left,left,eat,eat,approach,neg,approach-neg,1,1,749
sub-122,263,2,FALSE,right,approach,neg,insect8_crop.jpg,4,27,TRUE,262,1,1289.022,122,EAT                                    DON'T EAT,1288.345,1280.2882,1196.4823,left,1,left,left,eat,eat,approach,neg,approach-neg,1,1,677
sub-122,264,2,FALSE,right,approach,neg,insect27_crop.jpg,4,27,TRUE,263,1,1291.2598,122,EAT                                    DON'T EAT,1290.3633,1280.2882,1196.4823,left,1,left,left,eat,eat,approach,neg,approach-neg,1,1,896.5
sub-122,265,2,FALSE,right,approach,neg,insect12_crop.jpg,4,27,TRUE,264,1,1293.0066,122,EAT                                    DON'T EAT,1292.3815,1280.2882,1196.4823,left,1,left,left,eat,eat,approach,neg,approach-neg,1,1,625.0999999998603
sub-122,266,2,FALSE,right,approach,neg,insect32_crop.jpg,4,27,TRUE,265,1,1295.561,122,EAT                                    DON'T EAT,1294.3997,1280.2882,1196.4823,left,1,left,left,eat,eat,approach,neg,approach-neg,1,1,1161.3000000000466
sub-122,267,2,TRUE,right,avoid,pos,meat2_crop.jpg,4,27,TRUE,266,2,1297.212,122,EAT                                    DON'T EAT,1296.4182,1280.2882,1196.4823,left,2,right,right,not_eat,not_eat,approach,neg,approach-neg,1,1,793.7999999998137
sub-122,268,2,FALSE,right,approach,neg,insect11_crop.jpg,4,27,TRUE,267,1,1299.1633,122,EAT                                    DON'T EAT,1298.4366,1280.2882,1196.4823,left,1,left,left,eat,eat,approach,neg,approach-neg,1,1,726.6999999999534
sub-122,269,2,FALSE,right,approach,neg,insect28_crop.jpg,4,27,TRUE,268,1,1301.4492,122,EAT                                    DON'T EAT,1300.4546,1280.2882,1196.4823,left,1,left,left,eat,eat,approach,neg,approach-neg,1,1,994.5999999998603
sub-122,270,2,FALSE,right,approach,neg,insect21_crop.jpg,4,27,TRUE,269,1,1303.2235,122,EAT                                    DON'T EAT,1302.4734,1280.2882,1196.4823,left,1,left,left,eat,eat,approach,neg,approach-neg,1,1,750.0999999998603
sub-122,271,0,FALSE,right,approach,pos,cake18_crop.jpg,4,28,TRUE,270,1,1322.0646,122,EAT                                    DON'T EAT,1320.8213,1316.8019,1196.4823,left,1,left,left,eat,eat,approach,pos,approach-pos,1,1,1243.2999999998137
sub-122,272,0,FALSE,right,approach,pos,cake39_crop.jpg,4,28,TRUE,271,1,1323.5477,122,EAT                                    DON'T EAT,1322.8401,1316.8019,1196.4823,left,1,left,left,eat,eat,approach,pos,approach-pos,1,1,707.600000000326
sub-122,273,0,FALSE,right,approach,pos,cake20_crop.jpg,4,28,TRUE,272,1,1325.5337,122,EAT                                    DON'T EAT,1324.8586,1316.8019,1196.4823,left,1,left,left,eat,eat,approach,pos,approach-pos,1,1,675.0999999998603
sub-122,274,0,FALSE,right,approach,pos,cake6_crop.jpg,4,28,TRUE,273,1,1327.4899,122,EAT                                    DON'T EAT,1326.8768,1316.8019,1196.4823,left,1,left,left,eat,eat,approach,pos,approach-pos,1,1,613.1000000000931
sub-122,275,0,FALSE,right,approach,pos,cake37_crop.jpg,4,28,TRUE,274,1,1329.4231,122,EAT                                    DON'T EAT,1328.8954,1316.8019,1196.4823,left,1,left,left,eat,eat,approach,pos,approach-pos,1,1,527.6999999999534
sub-122,276,0,FALSE,right,approach,pos,cake14_crop.jpg,4,28,TRUE,275,1,1331.4619,122,EAT                                    DON'T EAT,1330.9135,1316.8019,1196.4823,left,1,left,left,eat,eat,approach,pos,approach-pos,1,1,548.3999999999069
sub-122,277,0,FALSE,right,approach,pos,cake19_crop.jpg,4,28,TRUE,276,1,1333.5319,122,EAT                                    DON'T EAT,1332.9319,1316.8019,1196.4823,left,1,left,left,eat,eat,approach,pos,approach-pos,1,1,599.9999999997672
sub-122,278,0,TRUE,right,avoid,pos,meat30_crop.jpg,4,28,TRUE,277,2,1335.8792,122,EAT                                    DON'T EAT,1334.9502,1316.8019,1196.4823,left,2,right,right,not_eat,not_eat,approach,pos,approach-pos,1,1,929.0000000002328
sub-122,279,0,FALSE,right,approach,pos,cake31_crop.jpg,4,28,TRUE,278,1,1337.9615,122,EAT                                    DON'T EAT,1336.9688,1316.8019,1196.4823,left,1,left,left,eat,eat,approach,pos,approach-pos,1,1,992.6999999999534
sub-122,280,0,TRUE,right,avoid,neg,fungus24_crop.jpg,4,28,TRUE,279,2,1339.6931,122,EAT                                    DON'T EAT,1338.9869,1316.8019,1196.4823,left,2,right,right,not_eat,not_eat,approach,pos,approach-pos,1,1,706.1999999997206
sub-122,281,1,FALSE,right,avoid,pos,meat17_crop.jpg,4,29,TRUE,280,2,1356.8715,122,EAT                                    DON'T EAT,1355.9839,1351.9641,1196.4823,left,2,right,right,not_eat,not_eat,avoid,pos,avoid-pos,1,1,887.6000000000931
sub-122,282,1,FALSE,right,avoid,pos,meat4_crop.jpg,4,29,TRUE,281,2,1358.7045,122,EAT                                    DON'T EAT,1358.0022,1351.9641,1196.4823,left,2,right,right,not_eat,not_eat,avoid,pos,avoid-pos,1,1,702.3000000000466
sub-122,283,1,FALSE,right,avoid,pos,meat26_crop.jpg,4,29,TRUE,282,2,1360.5472,122,EAT                                    DON'T EAT,1360.0205,1351.9641,1196.4823,left,2,right,right,not_eat,not_eat,avoid,pos,avoid-pos,1,1,526.6999999999534
sub-122,284,1,TRUE,right,approach,pos,cake24_crop.jpg,4,29,TRUE,283,1,1363.0042,122,EAT                                    DON'T EAT,1362.039,1351.9641,1196.4823,left,1,left,left,eat,eat,avoid,pos,avoid-pos,1,1,965.2000000001863
sub-122,285,1,FALSE,right,avoid,pos,meat21_crop.jpg,4,29,TRUE,284,2,1364.8246,122,EAT                                    DON'T EAT,1364.0571,1351.9641,1196.4823,left,2,right,right,not_eat,not_eat,avoid,pos,avoid-pos,1,1,767.4999999997672
sub-122,286,1,FALSE,right,avoid,pos,meat40_crop.jpg,4,29,TRUE,285,2,1366.892,122,EAT                                    DON'T EAT,1366.0762,1351.9641,1196.4823,left,2,right,right,not_eat,not_eat,avoid,pos,avoid-pos,1,1,815.8000000000466
sub-122,287,1,FALSE,right,avoid,pos,meat35_crop.jpg,4,29,TRUE,286,2,1369.246,122,EAT                                    DON'T EAT,1368.0944,1351.9641,1196.4823,left,2,right,right,not_eat,not_eat,avoid,pos,avoid-pos,1,1,1151.6000000000931
sub-122,288,1,TRUE,right,approach,neg,insect18_crop.jpg,4,29,TRUE,287,1,1370.9492,122,EAT                                    DON'T EAT,1370.1128,1351.9641,1196.4823,left,1,left,left,eat,eat,avoid,pos,avoid-pos,1,1,836.3999999999069
sub-122,289,1,FALSE,right,avoid,pos,meat37_crop.jpg,4,29,TRUE,288,2,1373.0938,122,EAT                                    DON'T EAT,1372.1311,1351.9641,1196.4823,left,2,right,right,not_eat,not_eat,avoid,pos,avoid-pos,1,1,962.6999999999534
sub-122,290,1,FALSE,right,avoid,pos,meat28_crop.jpg,4,29,TRUE,289,2,1374.8901,122,EAT                                    DON'T EAT,1374.1494,1351.9641,1196.4823,left,2,right,right,not_eat,not_eat,avoid,pos,avoid-pos,1,1,740.7000000001863
sub-122,291,3,FALSE,left,avoid,neg,fungus1_crop.jpg,4,30,TRUE,290,2,1391.2242,122,EAT                                    DON'T EAT,1390.463,1386.4431,1196.4823,left,2,right,right,not_eat,not_eat,avoid,neg,avoid-neg,1,1,761.2000000001863
sub-122,292,3,FALSE,left,avoid,neg,fungus32_crop.jpg,4,30,TRUE,291,2,1393.1653,122,EAT                                    DON'T EAT,1392.4812,1386.4431,1196.4823,left,2,right,right,not_eat,not_eat,avoid,neg,avoid-neg,1,1,684.0999999998603
sub-122,293,3,FALSE,left,avoid,neg,fungus14_crop.jpg,4,30,TRUE,292,2,1395.2505,122,EAT                                    DON'T EAT,1394.4996,1386.4431,1196.4823,left,2,right,right,not_eat,not_eat,avoid,neg,avoid-neg,1,1,750.8999999999069
sub-122,294,3,FALSE,left,avoid,neg,fungus38_crop.jpg,4,30,TRUE,293,2,1397.1715,122,EAT                                    DON'T EAT,1396.518,1386.4431,1196.4823,left,2,right,right,not_eat,not_eat,avoid,neg,avoid-neg,1,1,653.5
sub-122,295,3,FALSE,left,avoid,neg,fungus29_crop.jpg,4,30,TRUE,294,2,1399.2649,122,EAT                                    DON'T EAT,1398.5364,1386.4431,1196.4823,left,2,right,right,not_eat,not_eat,avoid,neg,avoid-neg,1,1,728.5
sub-122,296,3,FALSE,left,avoid,neg,fungus7_crop.jpg,4,30,TRUE,295,2,1401.3136,122,EAT                                    DON'T EAT,1400.5547,1386.4431,1196.4823,left,2,right,right,not_eat,not_eat,avoid,neg,avoid-neg,1,1,758.8999999999069
sub-122,297,3,TRUE,left,approach,pos,cake7_crop.jpg,4,30,TRUE,296,1,1403.5138,122,EAT                                    DON'T EAT,1402.573,1386.4431,1196.4823,left,1,left,left,eat,eat,avoid,neg,avoid-neg,1,1,940.8000000000466
sub-122,298,3,TRUE,left,approach,neg,insect8_crop.jpg,4,30,TRUE,297,1,1405.4445,122,EAT                                    DON'T EAT,1404.5914,1386.4431,1196.4823,left,1,left,left,eat,eat,avoid,neg,avoid-neg,1,1,853.1000000000931
sub-122,299,3,FALSE,left,avoid,neg,fungus8_crop.jpg,4,30,TRUE,298,2,1407.5198,122,EAT                                    DON'T EAT,1406.6096,1386.4431,1196.4823,left,2,right,right,not_eat,not_eat,avoid,neg,avoid-neg,1,1,910.1999999999534
sub-122,300,3,FALSE,left,avoid,neg,fungus18_crop.jpg,4,30,TRUE,299,2,1409.3777,122,EAT                                    DON'T EAT,1408.628,1386.4431,1196.4823,left,2,right,right,not_eat,not_eat,avoid,neg,avoid-neg,1,1,749.6999999999534
sub-122,301,0,FALSE,left,approach,neg,insect24_crop.jpg,4,31,TRUE,300,1,1429.57,122,EAT                                    DON'T EAT,1428.6113,1424.5912,1196.4823,left,1,left,left,eat,eat,approach,neg,approach-neg,1,1,958.6999999999534
sub-122,302,0,FALSE,left,approach,neg,insect12_crop.jpg,4,31,TRUE,301,1,1431.2638,122,EAT                                    DON'T EAT,1430.6296,1424.5912,1196.4823,left,1,left,left,eat,eat,approach,neg,approach-neg,1,1,634.1999999999534
sub-122,303,0,TRUE,left,avoid,neg,fungus9_crop.jpg,4,31,TRUE,302,2,1433.3864,122,EAT                                    DON'T EAT,1432.648,1424.5912,1196.4823,left,2,right,right,not_eat,not_eat,approach,neg,approach-neg,1,1,738.4000000001397
sub-122,304,0,FALSE,left,approach,neg,insect32_crop.jpg,4,31,TRUE,303,1,1435.4486,122,EAT                                    DON'T EAT,1434.6665,1424.5912,1196.4823,left,1,left,left,eat,eat,approach,neg,approach-neg,1,1,782.0999999998603
sub-122,305,0,FALSE,left,approach,neg,insect6_crop.jpg,4,31,TRUE,304,1,1437.3506,122,EAT                                    DON'T EAT,1436.6848,1424.5912,1196.4823,left,1,left,left,eat,eat,approach,neg,approach-neg,1,1,665.8000000000466
sub-122,306,0,TRUE,left,avoid,pos,meat9_crop.jpg,4,31,TRUE,305,2,1439.4825,122,EAT                                    DON'T EAT,1438.703,1424.5912,1196.4823,left,2,right,right,not_eat,not_eat,approach,neg,approach-neg,1,1,779.5
sub-122,307,0,FALSE,left,approach,neg,insect29_crop.jpg,4,31,TRUE,306,1,1441.522,122,EAT                                    DON'T EAT,1440.7213,1424.5912,1196.4823,left,1,left,left,eat,eat,approach,neg,approach-neg,1,1,800.7000000001863
sub-122,308,0,FALSE,left,approach,neg,insect3_crop.jpg,4,31,TRUE,307,1,1443.4695,122,EAT                                    DON'T EAT,1442.7397,1424.5912,1196.4823,left,1,left,left,eat,eat,approach,neg,approach-neg,1,1,729.7999999998137
sub-122,309,0,FALSE,left,approach,neg,insect25_crop.jpg,4,31,TRUE,308,1,1445.4537,122,EAT                                    DON'T EAT,1444.758,1424.5912,1196.4823,left,1,left,left,eat,eat,approach,neg,approach-neg,1,1,695.6999999999534
sub-122,310,0,FALSE,left,approach,neg,insect20_crop.jpg,4,31,TRUE,309,1,1447.3795,122,EAT                                    DON'T EAT,1446.7764,1424.5912,1196.4823,left,1,left,left,eat,eat,approach,neg,approach-neg,1,1,603.1000000000931
sub-122,311,3,FALSE,right,approach,neg,insect37_crop.jpg,4,32,TRUE,310,1,1463.7228,122,EAT                                    DON'T EAT,1462.9396,1458.936,1196.4823,left,1,left,left,eat,eat,approach,neg,approach-neg,1,1,783.2000000001863
sub-122,312,3,TRUE,right,avoid,pos,meat27_crop.jpg,4,32,TRUE,311,2,1465.7477,122,EAT                                    DON'T EAT,1464.9583,1458.936,1196.4823,left,2,right,right,not_eat,not_eat,approach,neg,approach-neg,1,1,789.3999999999069
sub-122,313,3,FALSE,right,approach,neg,insect24_crop.jpg,4,32,TRUE,312,1,1467.7041,122,EAT                                    DON'T EAT,1466.9766,1458.936,1196.4823,left,1,left,left,eat,eat,approach,neg,approach-neg,1,1,727.5
sub-122,314,3,TRUE,right,avoid,neg,fungus1_crop.jpg,4,32,TRUE,313,2,1469.6292,122,EAT                                    DON'T EAT,1468.9949,1458.936,1196.4823,left,2,right,right,not_eat,not_eat,approach,neg,approach-neg,1,1,634.3000000002794
sub-122,315,3,FALSE,right,approach,neg,insect20_crop.jpg,4,32,TRUE,314,1,1471.9117,122,EAT                                    DON'T EAT,1471.0131,1458.936,1196.4823,left,1,left,left,eat,eat,approach,neg,approach-neg,1,1,898.600000000326
sub-122,316,3,FALSE,right,approach,neg,insect39_crop.jpg,4,32,TRUE,315,1,1473.8448,122,EAT                                    DON'T EAT,1473.0315,1458.936,1196.4823,left,1,left,left,eat,eat,approach,neg,approach-neg,1,1,813.3000000000466
sub-122,317,3,FALSE,right,approach,neg,insect3_crop.jpg,4,32,TRUE,316,1,1475.6495,122,EAT                                    DON'T EAT,1475.0497,1458.936,1196.4823,left,1,left,left,eat,eat,approach,neg,approach-neg,1,1,599.8000000000466
sub-122,318,3,FALSE,right,approach,neg,insect6_crop.jpg,4,32,TRUE,317,1,1477.6692,122,EAT                                    DON'T EAT,1477.0682,1458.936,1196.4823,left,1,left,left,eat,eat,approach,neg,approach-neg,1,1,601
sub-122,319,3,FALSE,right,approach,neg,insect31_crop.jpg,4,32,TRUE,318,1,1479.7736,122,EAT                                    DON'T EAT,1479.0867,1458.936,1196.4823,left,1,left,left,eat,eat,approach,neg,approach-neg,1,1,686.9000000001397
sub-122,320,3,FALSE,right,approach,neg,insect35_crop.jpg,4,32,TRUE,319,1,1481.9717,122,EAT                                    DON'T EAT,1481.1049,1458.936,1196.4823,left,1,left,left,eat,eat,approach,neg,approach-neg,1,1,866.7999999998137
