subject,trial_number,n_block,catch,hand,mot,val,stim_name,run_number,num_block,ran,order,response,time_of_response,subject_number,left_side_resp_label,trial_onset,blk_instr_onset,baseline_onset,response_hand,response_cleaned,response_lat,response_lat_cleaned,response_meaning,response_meaning_cleaned,condition_mot,condition_val,condition,correct,correct_cleaned,rt
sub-035,81,3,FALSE,left,avoid,pos,meat12_crop.jpg,1,9,TRUE,80,1,2355.7188,35,DON'T EAT                                    EAT,2354.6262,2350.606,2338.801,left,1,left,left,not_eat,not_eat,avoid,pos,avoid-pos,1,1,1092.6000000000931
sub-035,82,3,TRUE,left,approach,pos,cake35_crop.jpg,1,9,TRUE,81,2,2357.44,35,DON'T EAT                                    EAT,2356.6445,2350.606,2338.801,left,2,right,right,eat,eat,avoid,pos,avoid-pos,1,1,795.5
sub-035,83,3,FALSE,left,avoid,pos,meat6_crop.jpg,1,9,TRUE,82,1,2359.4993,35,DON'T EAT                                    EAT,2358.6626,2350.606,2338.801,left,1,left,left,not_eat,not_eat,avoid,pos,avoid-pos,1,1,836.6999999997206
sub-035,84,3,FALSE,left,avoid,pos,meat25_crop.jpg,1,9,TRUE,83,1,2361.5388,35,DON'T EAT                                    EAT,2360.6814,2350.606,2338.801,left,1,left,left,not_eat,not_eat,avoid,pos,avoid-pos,1,1,857.3999999999069
sub-035,85,3,FALSE,left,avoid,pos,meat26_crop.jpg,1,9,TRUE,84,1,2363.59,35,DON'T EAT                                    EAT,2362.6997,2350.606,2338.801,left,1,left,left,not_eat,not_eat,avoid,pos,avoid-pos,1,1,890.2999999998137
sub-035,86,3,FALSE,left,avoid,pos,meat22_crop.jpg,1,9,TRUE,85,1,2365.3533,35,DON'T EAT                                    EAT,2364.718,2350.606,2338.801,left,1,left,left,not_eat,not_eat,avoid,pos,avoid-pos,1,1,635.3000000002794
sub-035,87,3,FALSE,left,avoid,pos,meat14_crop.jpg,1,9,TRUE,86,1,2367.6882,35,DON'T EAT                                    EAT,2366.7363,2350.606,2338.801,left,1,left,left,not_eat,not_eat,avoid,pos,avoid-pos,1,1,951.9000000003725
sub-035,88,3,TRUE,left,approach,neg,insect33_crop.jpg,1,9,TRUE,87,2,2369.8867,35,DON'T EAT                                    EAT,2368.7546,2350.606,2338.801,left,2,right,right,eat,eat,avoid,pos,avoid-pos,1,1,1132.1000000000931
sub-035,89,3,FALSE,left,avoid,pos,meat31_crop.jpg,1,9,TRUE,88,1,2371.6223,35,DON'T EAT                                    EAT,2370.773,2350.606,2338.801,left,1,left,left,not_eat,not_eat,avoid,pos,avoid-pos,1,1,849.2999999998137
sub-035,90,3,FALSE,left,avoid,pos,meat4_crop.jpg,1,9,TRUE,89,1,2373.491,35,DON'T EAT                                    EAT,2372.7915,2350.606,2338.801,left,1,left,left,not_eat,not_eat,avoid,pos,avoid-pos,1,1,699.5
sub-035,91,1,FALSE,right,approach,pos,cake22_crop.jpg,1,10,TRUE,90,2,2390.6592,35,DON'T EAT                                    EAT,2389.4387,2385.4182,2338.801,left,2,right,right,eat,eat,approach,pos,approach-pos,1,1,1220.5
sub-035,92,1,FALSE,right,approach,pos,cake12_crop.jpg,1,10,TRUE,91,2,2392.0728,35,DON'T EAT                                    EAT,2391.4563,2385.4182,2338.801,left,2,right,right,eat,eat,approach,pos,approach-pos,1,1,616.5
sub-035,93,1,FALSE,right,approach,pos,cake40_crop.jpg,1,10,TRUE,92,2,2394.0786,35,DON'T EAT                                    EAT,2393.4749,2385.4182,2338.801,left,2,right,right,eat,eat,approach,pos,approach-pos,1,1,603.6999999992549
sub-035,94,1,FALSE,right,approach,pos,cake36_crop.jpg,1,10,TRUE,93,2,2396.0327,35,DON'T EAT                                    EAT,2395.4934,2385.4182,2338.801,left,2,right,right,eat,eat,approach,pos,approach-pos,1,1,539.3000000002794
sub-035,95,1,FALSE,right,approach,pos,cake20_crop.jpg,1,10,TRUE,94,2,2397.9592,35,DON'T EAT                                    EAT,2397.5117,2385.4182,2338.801,left,2,right,right,eat,eat,approach,pos,approach-pos,1,1,447.49999999953434
sub-035,96,1,FALSE,right,approach,pos,cake34_crop.jpg,1,10,TRUE,95,2,2400.3955,35,DON'T EAT                                    EAT,2399.5303,2385.4182,2338.801,left,2,right,right,eat,eat,approach,pos,approach-pos,1,1,865.2000000001863
sub-035,97,1,FALSE,right,approach,pos,cake28_crop.jpg,1,10,TRUE,96,2,2402.1633,35,DON'T EAT                                    EAT,2401.5486,2385.4182,2338.801,left,2,right,right,eat,eat,approach,pos,approach-pos,1,1,614.7000000001863
sub-035,98,1,TRUE,right,avoid,pos,meat17_crop.jpg,1,10,TRUE,97,1,2404.4795,35,DON'T EAT                                    EAT,2403.5667,2385.4182,2338.801,left,1,left,left,not_eat,not_eat,approach,pos,approach-pos,1,1,912.8000000002794
sub-035,99,1,FALSE,right,approach,pos,cake21_crop.jpg,1,10,TRUE,98,2,2406.4219,35,DON'T EAT                                    EAT,2405.5852,2385.4182,2338.801,left,2,right,right,eat,eat,approach,pos,approach-pos,1,1,836.6999999997206
sub-035,100,1,TRUE,right,avoid,neg,fungus16_crop.jpg,1,10,TRUE,99,1,2408.4592,35,DON'T EAT                                    EAT,2407.6035,2385.4182,2338.801,left,1,left,left,not_eat,not_eat,approach,pos,approach-pos,1,1,855.6999999997206
sub-035,101,2,FALSE,right,avoid,neg,fungus7_crop.jpg,1,11,TRUE,100,1,2427.039,35,DON'T EAT                                    EAT,2426.2017,2422.1824,2338.801,left,1,left,left,not_eat,not_eat,avoid,neg,avoid-neg,1,1,837.2999999998137
sub-035,102,2,TRUE,right,approach,pos,cake32_crop.jpg,1,11,TRUE,101,2,2429.3623,35,DON'T EAT                                    EAT,2428.2207,2422.1824,2338.801,left,2,right,right,eat,eat,avoid,neg,avoid-neg,1,1,1141.6000000000931
sub-035,103,2,FALSE,right,avoid,neg,fungus32_crop.jpg,1,11,TRUE,102,1,2431.0784,35,DON'T EAT                                    EAT,2430.2388,2422.1824,2338.801,left,1,left,left,not_eat,not_eat,avoid,neg,avoid-neg,1,1,839.5999999996275
sub-035,104,2,FALSE,right,avoid,neg,fungus6_crop.jpg,1,11,TRUE,103,1,2433.0813,35,DON'T EAT                                    EAT,2432.2573,2422.1824,2338.801,left,1,left,left,not_eat,not_eat,avoid,neg,avoid-neg,1,1,823.9999999995343
sub-035,105,2,FALSE,right,avoid,neg,fungus4_crop.jpg,1,11,TRUE,104,1,2435.0781,35,DON'T EAT                                    EAT,2434.2756,2422.1824,2338.801,left,1,left,left,not_eat,not_eat,avoid,neg,avoid-neg,1,1,802.5
sub-035,106,2,TRUE,right,approach,neg,insect7_crop.jpg,1,11,TRUE,105,2,2437.0889,35,DON'T EAT                                    EAT,2436.294,2422.1824,2338.801,left,2,right,right,eat,eat,avoid,neg,avoid-neg,1,1,794.9000000003725
sub-035,107,2,FALSE,right,avoid,neg,fungus22_crop.jpg,1,11,TRUE,106,1,2439.0425,35,DON'T EAT                                    EAT,2438.3125,2422.1824,2338.801,left,1,left,left,not_eat,not_eat,avoid,neg,avoid-neg,1,1,730
sub-035,108,2,FALSE,right,avoid,neg,fungus19_crop.jpg,1,11,TRUE,107,1,2441.0212,35,DON'T EAT                                    EAT,2440.3308,2422.1824,2338.801,left,1,left,left,not_eat,not_eat,avoid,neg,avoid-neg,1,1,690.3999999999069
sub-035,109,2,FALSE,right,avoid,neg,fungus37_crop.jpg,1,11,TRUE,108,1,2443.0186,35,DON'T EAT                                    EAT,2442.3489,2422.1824,2338.801,left,1,left,left,not_eat,not_eat,avoid,neg,avoid-neg,1,1,669.7000000001863
sub-035,110,2,FALSE,right,avoid,neg,fungus8_crop.jpg,1,11,TRUE,109,1,2445.0864,35,DON'T EAT                                    EAT,2444.3674,2422.1824,2338.801,left,1,left,left,not_eat,not_eat,avoid,neg,avoid-neg,1,1,719.0000000004657
sub-035,111,3,TRUE,left,approach,pos,cake16_crop.jpg,1,12,TRUE,110,2,2464.0671,35,DON'T EAT                                    EAT,2463.1165,2459.0964,2338.801,left,2,right,right,eat,eat,avoid,neg,avoid-neg,1,1,950.6000000000931
sub-035,112,3,FALSE,left,avoid,neg,fungus24_crop.jpg,1,12,TRUE,111,1,2465.8982,35,DON'T EAT                                    EAT,2465.1345,2459.0964,2338.801,left,1,left,left,not_eat,not_eat,avoid,neg,avoid-neg,1,1,763.7000000001863
sub-035,113,3,FALSE,left,avoid,neg,fungus33_crop.jpg,1,12,TRUE,112,1,2467.7244,35,DON'T EAT                                    EAT,2467.1528,2459.0964,2338.801,left,1,left,left,not_eat,not_eat,avoid,neg,avoid-neg,1,1,571.6000000000931
sub-035,114,3,FALSE,left,avoid,neg,fungus18_crop.jpg,1,12,TRUE,113,1,2469.7334,35,DON'T EAT                                    EAT,2469.1714,2459.0964,2338.801,left,1,left,left,not_eat,not_eat,avoid,neg,avoid-neg,1,1,561.9999999995343
sub-035,115,3,FALSE,left,avoid,neg,fungus5_crop.jpg,1,12,TRUE,114,1,2471.8376,35,DON'T EAT                                    EAT,2471.1897,2459.0964,2338.801,left,1,left,left,not_eat,not_eat,avoid,neg,avoid-neg,1,1,647.8999999999069
sub-035,116,3,FALSE,left,avoid,neg,fungus23_crop.jpg,1,12,TRUE,115,1,2473.8643,35,DON'T EAT                                    EAT,2473.2083,2459.0964,2338.801,left,1,left,left,not_eat,not_eat,avoid,neg,avoid-neg,1,1,656.0000000004657
sub-035,117,3,FALSE,left,avoid,neg,fungus10_crop.jpg,1,12,TRUE,116,1,2475.839,35,DON'T EAT                                    EAT,2475.2266,2459.0964,2338.801,left,1,left,left,not_eat,not_eat,avoid,neg,avoid-neg,1,1,612.3999999999069
sub-035,118,3,TRUE,left,approach,neg,insect20_crop.jpg,1,12,TRUE,117,2,2478.2925,35,DON'T EAT                                    EAT,2477.2446,2459.0964,2338.801,left,2,right,right,eat,eat,avoid,neg,avoid-neg,1,1,1047.8999999999069
sub-035,119,3,FALSE,left,avoid,neg,fungus37_crop.jpg,1,12,TRUE,118,1,2479.9497,35,DON'T EAT                                    EAT,2479.263,2459.0964,2338.801,left,1,left,left,not_eat,not_eat,avoid,neg,avoid-neg,1,1,686.7000000001863
sub-035,120,3,FALSE,left,avoid,neg,fungus17_crop.jpg,1,12,TRUE,119,1,2482.0542,35,DON'T EAT                                    EAT,2481.2812,2459.0964,2338.801,left,1,left,left,not_eat,not_eat,avoid,neg,avoid-neg,1,1,773.0000000004657
sub-035,121,2,FALSE,left,avoid,pos,meat30_crop.jpg,1,13,TRUE,120,1,2499.54,35,DON'T EAT                                    EAT,2498.4624,2494.4424,2338.801,left,1,left,left,not_eat,not_eat,avoid,pos,avoid-pos,1,1,1077.6000000000931
sub-035,122,2,FALSE,left,avoid,pos,meat18_crop.jpg,1,13,TRUE,121,1,2501.114,35,DON'T EAT                                    EAT,2500.4807,2494.4424,2338.801,left,1,left,left,not_eat,not_eat,avoid,pos,avoid-pos,1,1,633.2999999998137
sub-035,123,2,FALSE,left,avoid,pos,meat34_crop.jpg,1,13,TRUE,122,1,2503.2737,35,DON'T EAT                                    EAT,2502.499,2494.4424,2338.801,left,1,left,left,not_eat,not_eat,avoid,pos,avoid-pos,1,1,774.7000000001863
sub-035,124,2,FALSE,left,avoid,pos,meat38_crop.jpg,1,13,TRUE,123,1,2505.1624,35,DON'T EAT                                    EAT,2504.5173,2494.4424,2338.801,left,1,left,left,not_eat,not_eat,avoid,pos,avoid-pos,1,1,645.1000000005588
sub-035,125,2,TRUE,left,approach,pos,cake4_crop.jpg,1,13,TRUE,124,2,2507.3833,35,DON'T EAT                                    EAT,2506.5356,2494.4424,2338.801,left,2,right,right,eat,eat,avoid,pos,avoid-pos,1,1,847.6999999997206
sub-035,126,2,TRUE,left,approach,neg,insect1_crop.jpg,1,13,TRUE,125,2,2509.3254,35,DON'T EAT                                    EAT,2508.5542,2494.4424,2338.801,left,2,right,right,eat,eat,avoid,pos,avoid-pos,1,1,771.2000000001863
sub-035,127,2,FALSE,left,avoid,pos,meat5_crop.jpg,1,13,TRUE,126,1,2512.0017,35,DON'T EAT                                    EAT,2510.5725,2494.4424,2338.801,left,1,left,left,not_eat,not_eat,avoid,pos,avoid-pos,1,1,1429.1999999997206
sub-035,128,2,FALSE,left,avoid,pos,meat1_crop.jpg,1,13,TRUE,127,1,2513.425,35,DON'T EAT                                    EAT,2512.5908,2494.4424,2338.801,left,1,left,left,not_eat,not_eat,avoid,pos,avoid-pos,1,1,834.2000000001863
sub-035,129,2,FALSE,left,avoid,pos,meat36_crop.jpg,1,13,TRUE,128,1,2515.2764,35,DON'T EAT                                    EAT,2514.609,2494.4424,2338.801,left,1,left,left,not_eat,not_eat,avoid,pos,avoid-pos,1,1,667.4000000003725
sub-035,130,2,FALSE,left,avoid,pos,meat32_crop.jpg,1,13,TRUE,129,1,2517.2422,35,DON'T EAT                                    EAT,2516.6274,2494.4424,2338.801,left,1,left,left,not_eat,not_eat,avoid,pos,avoid-pos,1,1,614.8000000002794
sub-035,131,1,TRUE,left,avoid,neg,fungus7_crop.jpg,1,14,TRUE,130,1,2534.1548,35,DON'T EAT                                    EAT,2533.3079,2529.2876,2338.801,left,1,left,left,not_eat,not_eat,approach,pos,approach-pos,1,1,846.8999999999069
sub-035,132,1,FALSE,left,approach,pos,cake38_crop.jpg,1,14,TRUE,131,2,2536.332,35,DON'T EAT                                    EAT,2535.3264,2529.2876,2338.801,left,2,right,right,eat,eat,approach,pos,approach-pos,1,1,1005.6000000000931
sub-035,133,1,FALSE,left,approach,pos,cake2_crop.jpg,1,14,TRUE,132,2,2537.947,35,DON'T EAT                                    EAT,2537.3445,2529.2876,2338.801,left,2,right,right,eat,eat,approach,pos,approach-pos,1,1,602.5
sub-035,134,1,FALSE,left,approach,pos,cake36_crop.jpg,1,14,TRUE,133,2,2539.8389,35,DON'T EAT                                    EAT,2539.363,2529.2876,2338.801,left,2,right,right,eat,eat,approach,pos,approach-pos,1,1,475.90000000037253
sub-035,135,1,FALSE,left,approach,pos,cake29_crop.jpg,1,14,TRUE,134,2,2541.963,35,DON'T EAT                                    EAT,2541.3813,2529.2876,2338.801,left,2,right,right,eat,eat,approach,pos,approach-pos,1,1,581.7000000001863
sub-035,136,1,TRUE,left,avoid,pos,meat13_crop.jpg,1,14,TRUE,135,1,2544.2234,35,DON'T EAT                                    EAT,2543.3997,2529.2876,2338.801,left,1,left,left,not_eat,not_eat,approach,pos,approach-pos,1,1,823.7000000001863
sub-035,137,1,FALSE,left,approach,pos,cake18_crop.jpg,1,14,TRUE,136,2,2546.326,35,DON'T EAT                                    EAT,2545.418,2529.2876,2338.801,left,2,right,right,eat,eat,approach,pos,approach-pos,1,1,908
sub-035,138,1,FALSE,left,approach,pos,cake10_crop.jpg,1,14,TRUE,137,2,2548.559,35,DON'T EAT                                    EAT,2547.4363,2529.2876,2338.801,left,2,right,right,eat,eat,approach,pos,approach-pos,1,1,1122.7000000001863
sub-035,139,1,FALSE,left,approach,pos,cake21_crop.jpg,1,14,TRUE,138,2,2550.1526,35,DON'T EAT                                    EAT,2549.4546,2529.2876,2338.801,left,2,right,right,eat,eat,approach,pos,approach-pos,1,1,698
sub-035,140,1,FALSE,left,approach,pos,cake30_crop.jpg,1,14,TRUE,139,2,2552.108,35,DON'T EAT                                    EAT,2551.473,2529.2876,2338.801,left,2,right,right,eat,eat,approach,pos,approach-pos,1,1,635
sub-035,141,1,TRUE,right,approach,pos,cake37_crop.jpg,1,15,TRUE,140,2,2570.4402,35,DON'T EAT                                    EAT,2569.6047,2565.5842,2338.801,left,2,right,right,eat,eat,avoid,pos,avoid-pos,1,1,835.5000000004657
sub-035,142,1,FALSE,right,avoid,pos,meat35_crop.jpg,1,15,TRUE,141,1,2572.475,35,DON'T EAT                                    EAT,2571.623,2565.5842,2338.801,left,1,left,left,not_eat,not_eat,avoid,pos,avoid-pos,1,1,852
sub-035,143,1,FALSE,right,avoid,pos,meat22_crop.jpg,1,15,TRUE,142,1,2574.3726,35,DON'T EAT                                    EAT,2573.642,2565.5842,2338.801,left,1,left,left,not_eat,not_eat,avoid,pos,avoid-pos,1,1,730.6000000000931
sub-035,144,1,FALSE,right,avoid,pos,meat1_crop.jpg,1,15,TRUE,143,1,2576.2932,35,DON'T EAT                                    EAT,2575.66,2565.5842,2338.801,left,1,left,left,not_eat,not_eat,avoid,pos,avoid-pos,1,1,633.2000000001863
sub-035,145,1,FALSE,right,avoid,pos,meat5_crop.jpg,1,15,TRUE,144,1,2578.3481,35,DON'T EAT                                    EAT,2577.6782,2565.5842,2338.801,left,1,left,left,not_eat,not_eat,avoid,pos,avoid-pos,1,1,669.9000000003725
sub-035,146,1,FALSE,right,avoid,pos,meat28_crop.jpg,1,15,TRUE,145,1,2580.3323,35,DON'T EAT                                    EAT,2579.6965,2565.5842,2338.801,left,1,left,left,not_eat,not_eat,avoid,pos,avoid-pos,1,1,635.7999999998137
sub-035,147,1,FALSE,right,avoid,pos,meat12_crop.jpg,1,15,TRUE,146,1,2582.2964,35,DON'T EAT                                    EAT,2581.7148,2565.5842,2338.801,left,1,left,left,not_eat,not_eat,avoid,pos,avoid-pos,1,1,581.6000000000931
sub-035,148,1,TRUE,right,approach,neg,insect20_crop.jpg,1,15,TRUE,147,2,2584.5256,35,DON'T EAT                                    EAT,2583.7332,2565.5842,2338.801,left,2,right,right,eat,eat,avoid,pos,avoid-pos,1,1,792.3999999999069
sub-035,149,1,FALSE,right,avoid,pos,meat38_crop.jpg,1,15,TRUE,148,1,2586.586,35,DON'T EAT                                    EAT,2585.7515,2565.5842,2338.801,left,1,left,left,not_eat,not_eat,avoid,pos,avoid-pos,1,1,834.5
sub-035,150,1,FALSE,right,avoid,pos,meat9_crop.jpg,1,15,TRUE,149,1,2588.5322,35,DON'T EAT                                    EAT,2587.7698,2565.5842,2338.801,left,1,left,left,not_eat,not_eat,avoid,pos,avoid-pos,1,1,762.4000000003725
sub-035,151,3,FALSE,right,approach,pos,cake33_crop.jpg,1,16,TRUE,150,2,2607.1357,35,DON'T EAT                                    EAT,2606.0017,2601.9814,2338.801,left,2,right,right,eat,eat,approach,pos,approach-pos,1,1,1134
sub-035,152,3,TRUE,right,avoid,neg,fungus34_crop.jpg,1,16,TRUE,151,1,2608.8774,35,DON'T EAT                                    EAT,2608.0198,2601.9814,2338.801,left,1,left,left,not_eat,not_eat,approach,pos,approach-pos,1,1,857.6000000000931
sub-035,153,3,FALSE,right,approach,pos,cake30_crop.jpg,1,16,TRUE,152,2,2610.9897,35,DON'T EAT                                    EAT,2610.0386,2601.9814,2338.801,left,2,right,right,eat,eat,approach,pos,approach-pos,1,1,951.1000000005588
sub-035,154,3,FALSE,right,approach,pos,cake8_crop.jpg,1,16,TRUE,153,2,2612.9133,35,DON'T EAT                                    EAT,2612.0566,2601.9814,2338.801,left,2,right,right,eat,eat,approach,pos,approach-pos,1,1,856.7000000001863
sub-035,155,3,FALSE,right,approach,pos,cake27_crop.jpg,1,16,TRUE,154,2,2614.8037,35,DON'T EAT                                    EAT,2614.075,2601.9814,2338.801,left,2,right,right,eat,eat,approach,pos,approach-pos,1,1,728.6999999997206
sub-035,156,3,FALSE,right,approach,pos,cake38_crop.jpg,1,16,TRUE,155,2,2616.6353,35,DON'T EAT                                    EAT,2616.0933,2601.9814,2338.801,left,2,right,right,eat,eat,approach,pos,approach-pos,1,1,542
sub-035,157,3,FALSE,right,approach,pos,cake23_crop.jpg,1,16,TRUE,156,2,2618.8633,35,DON'T EAT                                    EAT,2618.1113,2601.9814,2338.801,left,2,right,right,eat,eat,approach,pos,approach-pos,1,1,752
sub-035,158,3,TRUE,right,avoid,pos,meat36_crop.jpg,1,16,TRUE,157,1,2620.8728,35,DON'T EAT                                    EAT,2620.1301,2601.9814,2338.801,left,1,left,left,not_eat,not_eat,approach,pos,approach-pos,1,1,742.7000000006519
sub-035,159,3,FALSE,right,approach,pos,cake14_crop.jpg,1,16,TRUE,158,2,2622.9014,35,DON'T EAT                                    EAT,2622.1484,2601.9814,2338.801,left,2,right,right,eat,eat,approach,pos,approach-pos,1,1,753.0000000004657
sub-035,160,3,FALSE,right,approach,pos,cake16_crop.jpg,1,16,TRUE,159,2,2624.9817,35,DON'T EAT                                    EAT,2624.1667,2601.9814,2338.801,left,2,right,right,eat,eat,approach,pos,approach-pos,1,1,814.9999999995343
sub-035,161,3,FALSE,right,approach,neg,insect21_crop.jpg,2,17,TRUE,160,2,2736.853,35,DON'T EAT                                    EAT,2735.8594,2731.8389,2718.87,right,2,right,right,eat,eat,approach,neg,approach-neg,1,1,993.6000000000931
sub-035,162,3,FALSE,right,approach,neg,insect14_crop.jpg,2,17,TRUE,161,2,2738.6077,35,DON'T EAT                                    EAT,2737.8782,2731.8389,2718.87,right,2,right,right,eat,eat,approach,neg,approach-neg,1,1,729.5
sub-035,163,3,FALSE,right,approach,neg,insect2_crop.jpg,2,17,TRUE,162,2,2740.5093,35,DON'T EAT                                    EAT,2739.8962,2731.8389,2718.87,right,2,right,right,eat,eat,approach,neg,approach-neg,1,1,613.1000000000931
sub-035,164,3,FALSE,right,approach,neg,insect19_crop.jpg,2,17,TRUE,163,2,2742.4246,35,DON'T EAT                                    EAT,2741.9146,2731.8389,2718.87,right,2,right,right,eat,eat,approach,neg,approach-neg,1,1,509.99999999953434
sub-035,165,3,TRUE,right,avoid,pos,meat8_crop.jpg,2,17,TRUE,164,1,2744.788,35,DON'T EAT                                    EAT,2743.9329,2731.8389,2718.87,right,1,left,left,not_eat,not_eat,approach,neg,approach-neg,1,1,855.1000000000931
sub-035,166,3,FALSE,right,approach,neg,insect11_crop.jpg,2,17,TRUE,165,2,2746.743,35,DON'T EAT                                    EAT,2745.9512,2731.8389,2718.87,right,2,right,right,eat,eat,approach,neg,approach-neg,1,1,791.7999999998137
sub-035,167,3,FALSE,right,approach,neg,insect13_crop.jpg,2,17,TRUE,166,2,2748.7532,35,DON'T EAT                                    EAT,2747.9697,2731.8389,2718.87,right,2,right,right,eat,eat,approach,neg,approach-neg,1,1,783.5
sub-035,168,3,TRUE,right,avoid,neg,fungus38_crop.jpg,2,17,TRUE,167,1,2750.749,35,DON'T EAT                                    EAT,2749.988,2731.8389,2718.87,right,1,left,left,not_eat,not_eat,approach,neg,approach-neg,1,1,761
sub-035,169,3,FALSE,right,approach,neg,insect37_crop.jpg,2,17,TRUE,168,2,2752.9817,35,DON'T EAT                                    EAT,2752.0063,2731.8389,2718.87,right,2,right,right,eat,eat,approach,neg,approach-neg,1,1,975.3999999999069
sub-035,170,3,FALSE,right,approach,neg,insect1_crop.jpg,2,17,TRUE,169,2,2754.7725,35,DON'T EAT                                    EAT,2754.024,2731.8389,2718.87,right,2,right,right,eat,eat,approach,neg,approach-neg,1,1,748.5
sub-035,171,0,FALSE,left,approach,neg,insect38_crop.jpg,2,18,TRUE,170,2,2773.0427,35,DON'T EAT                                    EAT,2771.656,2767.636,2718.87,right,2,right,right,eat,eat,approach,neg,approach-neg,1,1,1386.7000000001863
sub-035,172,0,FALSE,left,approach,neg,insect28_crop.jpg,2,18,TRUE,171,2,2774.3418,35,DON'T EAT                                    EAT,2773.6743,2767.636,2718.87,right,2,right,right,eat,eat,approach,neg,approach-neg,1,1,667.5
sub-035,173,0,TRUE,left,avoid,pos,meat21_crop.jpg,2,18,TRUE,172,1,2776.4756,35,DON'T EAT                                    EAT,2775.6924,2767.636,2718.87,right,1,left,left,not_eat,not_eat,approach,neg,approach-neg,1,1,783.2000000001863
sub-035,174,0,FALSE,left,approach,neg,insect14_crop.jpg,2,18,TRUE,173,2,2778.4333,35,DON'T EAT                                    EAT,2777.711,2767.636,2718.87,right,2,right,right,eat,eat,approach,neg,approach-neg,1,1,722.3000000002794
sub-035,175,0,FALSE,left,approach,neg,insect15_crop.jpg,2,18,TRUE,174,2,2780.3538,35,DON'T EAT                                    EAT,2779.729,2767.636,2718.87,right,2,right,right,eat,eat,approach,neg,approach-neg,1,1,624.7999999998137
sub-035,176,0,FALSE,left,approach,neg,insect10_crop.jpg,2,18,TRUE,175,2,2782.1948,35,DON'T EAT                                    EAT,2781.7478,2767.636,2718.87,right,2,right,right,eat,eat,approach,neg,approach-neg,1,1,447
sub-035,177,0,FALSE,left,approach,neg,insect24_crop.jpg,2,18,TRUE,176,2,2784.3474,35,DON'T EAT                                    EAT,2783.766,2767.636,2718.87,right,2,right,right,eat,eat,approach,neg,approach-neg,1,1,581.3999999999069
sub-035,178,0,FALSE,left,approach,neg,insect34_crop.jpg,2,18,TRUE,177,2,2786.2805,35,DON'T EAT                                    EAT,2785.7842,2767.636,2718.87,right,2,right,right,eat,eat,approach,neg,approach-neg,1,1,496.29999999981374
sub-035,179,0,FALSE,left,approach,neg,insect32_crop.jpg,2,18,TRUE,178,2,2788.6624,35,DON'T EAT                                    EAT,2787.8025,2767.636,2718.87,right,2,right,right,eat,eat,approach,neg,approach-neg,1,1,859.9000000003725
sub-035,180,0,TRUE,left,avoid,neg,fungus26_crop.jpg,2,18,TRUE,179,1,2790.5125,35,DON'T EAT                                    EAT,2789.8213,2767.636,2718.87,right,1,left,left,not_eat,not_eat,approach,neg,approach-neg,1,1,691.1999999997206
sub-035,181,2,FALSE,left,approach,pos,cake12_crop.jpg,2,19,TRUE,180,2,2807.8887,35,DON'T EAT                                    EAT,2806.9353,2802.9153,2718.87,right,2,right,right,eat,eat,approach,pos,approach-pos,1,1,953.3999999999069
sub-035,182,2,FALSE,left,approach,pos,cake5_crop.jpg,2,19,TRUE,181,2,2809.522,35,DON'T EAT                                    EAT,2808.9536,2802.9153,2718.87,right,2,right,right,eat,eat,approach,pos,approach-pos,1,1,568.4000000003725
sub-035,183,2,FALSE,left,approach,pos,cake27_crop.jpg,2,19,TRUE,182,2,2811.4807,35,DON'T EAT                                    EAT,2810.9722,2802.9153,2718.87,right,2,right,right,eat,eat,approach,pos,approach-pos,1,1,508.5
sub-035,184,2,FALSE,left,approach,pos,cake14_crop.jpg,2,19,TRUE,183,2,2813.458,35,DON'T EAT                                    EAT,2812.9902,2802.9153,2718.87,right,2,right,right,eat,eat,approach,pos,approach-pos,1,1,467.79999999981374
sub-035,185,2,TRUE,left,avoid,pos,meat20_crop.jpg,2,19,TRUE,184,1,2815.9092,35,DON'T EAT                                    EAT,2815.0085,2802.9153,2718.87,right,1,left,left,not_eat,not_eat,approach,pos,approach-pos,1,1,900.7000000001863
sub-035,186,2,FALSE,left,approach,pos,cake26_crop.jpg,2,19,TRUE,185,2,2817.8318,35,DON'T EAT                                    EAT,2817.027,2802.9153,2718.87,right,2,right,right,eat,eat,approach,pos,approach-pos,1,1,804.7999999998137
sub-035,187,2,FALSE,left,approach,pos,cake7_crop.jpg,2,19,TRUE,186,2,2819.754,35,DON'T EAT                                    EAT,2819.0454,2802.9153,2718.87,right,2,right,right,eat,eat,approach,pos,approach-pos,1,1,708.6000000000931
sub-035,188,2,FALSE,left,approach,pos,cake22_crop.jpg,2,19,TRUE,187,2,2821.6357,35,DON'T EAT                                    EAT,2821.0637,2802.9153,2718.87,right,2,right,right,eat,eat,approach,pos,approach-pos,1,1,571.9999999995343
sub-035,189,2,FALSE,left,approach,pos,cake1_crop.jpg,2,19,TRUE,188,2,2823.5913,35,DON'T EAT                                    EAT,2823.0823,2802.9153,2718.87,right,2,right,right,eat,eat,approach,pos,approach-pos,1,1,509
sub-035,190,2,TRUE,left,avoid,neg,fungus12_crop.jpg,2,19,TRUE,189,2,2825.5117,35,DON'T EAT                                    EAT,2825.0999,2802.9153,2718.87,right,2,right,right,eat,eat,approach,pos,approach-pos,0,0,411.79999999981374
sub-035,191,2,TRUE,left,avoid,pos,meat23_crop.jpg,2,20,TRUE,190,1,2843.214,35,DON'T EAT                                    EAT,2842.198,2838.178,2718.87,right,1,left,left,not_eat,not_eat,approach,neg,approach-neg,1,1,1016
sub-035,192,2,FALSE,left,approach,neg,insect31_crop.jpg,2,20,TRUE,191,2,2845.1182,35,DON'T EAT                                    EAT,2844.2163,2838.178,2718.87,right,2,right,right,eat,eat,approach,neg,approach-neg,1,1,901.8999999999069
sub-035,193,2,FALSE,left,approach,neg,insect19_crop.jpg,2,20,TRUE,192,2,2846.7646,35,DON'T EAT                                    EAT,2846.2344,2838.178,2718.87,right,2,right,right,eat,eat,approach,neg,approach-neg,1,1,530.2000000001863
sub-035,194,2,FALSE,left,approach,neg,insect26_crop.jpg,2,20,TRUE,193,2,2848.7285,35,DON'T EAT                                    EAT,2848.2524,2838.178,2718.87,right,2,right,right,eat,eat,approach,neg,approach-neg,1,1,476.10000000009313
sub-035,195,2,FALSE,left,approach,neg,insect17_crop.jpg,2,20,TRUE,194,2,2850.842,35,DON'T EAT                                    EAT,2850.2712,2838.178,2718.87,right,2,right,right,eat,eat,approach,neg,approach-neg,1,1,570.7999999998137
sub-035,196,2,TRUE,left,avoid,neg,fungus40_crop.jpg,2,20,TRUE,195,1,2853.26,35,DON'T EAT                                    EAT,2852.2896,2838.178,2718.87,right,1,left,left,not_eat,not_eat,approach,neg,approach-neg,1,1,970.3999999999069
sub-035,197,2,FALSE,left,approach,neg,insect35_crop.jpg,2,20,TRUE,196,2,2855.173,35,DON'T EAT                                    EAT,2854.308,2838.178,2718.87,right,2,right,right,eat,eat,approach,neg,approach-neg,1,1,865
sub-035,198,2,FALSE,left,approach,neg,insect18_crop.jpg,2,20,TRUE,197,2,2857.0664,35,DON'T EAT                                    EAT,2856.3262,2838.178,2718.87,right,2,right,right,eat,eat,approach,neg,approach-neg,1,1,740.2000000001863
sub-035,199,2,FALSE,left,approach,neg,insect3_crop.jpg,2,20,TRUE,198,2,2858.9575,35,DON'T EAT                                    EAT,2858.3445,2838.178,2718.87,right,2,right,right,eat,eat,approach,neg,approach-neg,1,1,613
sub-035,200,2,FALSE,left,approach,neg,insect29_crop.jpg,2,20,TRUE,199,2,2860.8608,35,DON'T EAT                                    EAT,2860.363,2838.178,2718.87,right,2,right,right,eat,eat,approach,neg,approach-neg,1,1,497.79999999981374
sub-035,201,2,FALSE,left,avoid,neg,fungus29_crop.jpg,2,21,TRUE,200,1,2880.61,35,DON'T EAT                                    EAT,2879.5122,2875.4922,2718.87,right,1,left,left,not_eat,not_eat,avoid,neg,avoid-neg,1,1,1097.7999999998137
sub-035,202,2,FALSE,left,avoid,neg,fungus2_crop.jpg,2,21,TRUE,201,1,2882.2183,35,DON'T EAT                                    EAT,2881.5308,2875.4922,2718.87,right,1,left,left,not_eat,not_eat,avoid,neg,avoid-neg,1,1,687.5
sub-035,203,2,FALSE,left,avoid,neg,fungus4_crop.jpg,2,21,TRUE,202,1,2884.1423,35,DON'T EAT                                    EAT,2883.5488,2875.4922,2718.87,right,1,left,left,not_eat,not_eat,avoid,neg,avoid-neg,1,1,593.5
sub-035,204,2,FALSE,left,avoid,neg,fungus27_crop.jpg,2,21,TRUE,203,1,2886.1707,35,DON'T EAT                                    EAT,2885.5671,2875.4922,2718.87,right,1,left,left,not_eat,not_eat,avoid,neg,avoid-neg,1,1,603.6000000000931
sub-035,205,2,TRUE,left,approach,neg,insect37_crop.jpg,2,21,TRUE,204,2,2888.5173,35,DON'T EAT                                    EAT,2887.5854,2875.4922,2718.87,right,2,right,right,eat,eat,avoid,neg,avoid-neg,1,1,931.8999999999069
sub-035,206,2,FALSE,left,avoid,neg,fungus16_crop.jpg,2,21,TRUE,205,1,2890.331,35,DON'T EAT                                    EAT,2889.6038,2875.4922,2718.87,right,1,left,left,not_eat,not_eat,avoid,neg,avoid-neg,1,1,727.2000000001863
sub-035,207,2,TRUE,left,approach,pos,cake15_crop.jpg,2,21,TRUE,206,2,2892.4663,35,DON'T EAT                                    EAT,2891.6223,2875.4922,2718.87,right,2,right,right,eat,eat,avoid,neg,avoid-neg,1,1,844
sub-035,208,2,FALSE,left,avoid,neg,fungus31_crop.jpg,2,21,TRUE,207,1,2894.4233,35,DON'T EAT                                    EAT,2893.6406,2875.4922,2718.87,right,1,left,left,not_eat,not_eat,avoid,neg,avoid-neg,1,1,782.6999999997206
sub-035,209,2,FALSE,left,avoid,neg,fungus35_crop.jpg,2,21,TRUE,208,1,2896.4543,35,DON'T EAT                                    EAT,2895.659,2875.4922,2718.87,right,1,left,left,not_eat,not_eat,avoid,neg,avoid-neg,1,1,795.2999999998137
sub-035,210,2,FALSE,left,avoid,neg,fungus9_crop.jpg,2,21,TRUE,209,1,2898.3152,35,DON'T EAT                                    EAT,2897.6772,2875.4922,2718.87,right,1,left,left,not_eat,not_eat,avoid,neg,avoid-neg,1,1,638
sub-035,211,0,FALSE,right,approach,neg,insect27_crop.jpg,2,22,TRUE,210,2,2918.8542,35,DON'T EAT                                    EAT,2917.427,2913.407,2718.87,right,2,right,right,eat,eat,approach,neg,approach-neg,1,1,1427.2000000001863
sub-035,212,0,FALSE,right,approach,neg,insect10_crop.jpg,2,22,TRUE,211,2,2919.9854,35,DON'T EAT                                    EAT,2919.4453,2913.407,2718.87,right,2,right,right,eat,eat,approach,neg,approach-neg,1,1,540.1000000000931
sub-035,213,0,TRUE,right,avoid,neg,fungus27_crop.jpg,2,22,TRUE,212,1,2922.3274,35,DON'T EAT                                    EAT,2921.4636,2913.407,2718.87,right,1,left,left,not_eat,not_eat,approach,neg,approach-neg,1,1,863.7999999998137
sub-035,214,0,FALSE,right,approach,neg,insect3_crop.jpg,2,22,TRUE,213,2,2924.2454,35,DON'T EAT                                    EAT,2923.482,2913.407,2718.87,right,2,right,right,eat,eat,approach,neg,approach-neg,1,1,763.3999999999069
sub-035,215,0,FALSE,right,approach,neg,insect18_crop.jpg,2,22,TRUE,214,2,2926.1143,35,DON'T EAT                                    EAT,2925.5005,2913.407,2718.87,right,2,right,right,eat,eat,approach,neg,approach-neg,1,1,613.8000000002794
sub-035,216,0,TRUE,right,avoid,pos,meat39_crop.jpg,2,22,TRUE,215,1,2928.3147,35,DON'T EAT                                    EAT,2927.5188,2913.407,2718.87,right,1,left,left,not_eat,not_eat,approach,neg,approach-neg,1,1,795.8999999999069
sub-035,217,0,FALSE,right,approach,neg,insect8_crop.jpg,2,22,TRUE,216,2,2930.3494,35,DON'T EAT                                    EAT,2929.537,2913.407,2718.87,right,2,right,right,eat,eat,approach,neg,approach-neg,1,1,812.3999999999069
sub-035,218,0,FALSE,right,approach,neg,insect22_crop.jpg,2,22,TRUE,217,2,2932.2644,35,DON'T EAT                                    EAT,2931.5554,2913.407,2718.87,right,2,right,right,eat,eat,approach,neg,approach-neg,1,1,708.9999999995343
sub-035,219,0,FALSE,right,approach,neg,insect39_crop.jpg,2,22,TRUE,218,2,2934.0186,35,DON'T EAT                                    EAT,2933.5737,2913.407,2718.87,right,2,right,right,eat,eat,approach,neg,approach-neg,1,1,444.90000000037253
sub-035,220,0,FALSE,right,approach,neg,insect24_crop.jpg,2,22,TRUE,219,2,2936.0137,35,DON'T EAT                                    EAT,2935.5916,2913.407,2718.87,right,2,right,right,eat,eat,approach,neg,approach-neg,1,1,422.10000000009313
sub-035,221,3,FALSE,right,avoid,neg,fungus12_crop.jpg,2,23,TRUE,220,1,2954.8457,35,DON'T EAT                                    EAT,2954.0408,2950.0205,2718.87,right,1,left,left,not_eat,not_eat,avoid,neg,avoid-neg,1,1,804.8999999994412
sub-035,222,3,FALSE,right,avoid,neg,fungus9_crop.jpg,2,23,TRUE,221,1,2956.609,35,DON'T EAT                                    EAT,2956.0588,2950.0205,2718.87,right,1,left,left,not_eat,not_eat,avoid,neg,avoid-neg,1,1,550.2000000001863
sub-035,223,3,FALSE,right,avoid,neg,fungus20_crop.jpg,2,23,TRUE,222,1,2958.9553,35,DON'T EAT                                    EAT,2958.0771,2950.0205,2718.87,right,1,left,left,not_eat,not_eat,avoid,neg,avoid-neg,1,1,878.2000000001863
sub-035,224,3,TRUE,right,approach,pos,cake13_crop.jpg,2,23,TRUE,223,2,2960.9631,35,DON'T EAT                                    EAT,2960.096,2950.0205,2718.87,right,2,right,right,eat,eat,avoid,neg,avoid-neg,1,1,867.1000000000931
sub-035,225,3,TRUE,right,approach,neg,insect29_crop.jpg,2,23,TRUE,224,2,2963.1929,35,DON'T EAT                                    EAT,2962.114,2950.0205,2718.87,right,2,right,right,eat,eat,avoid,neg,avoid-neg,1,1,1078.8999999999069
sub-035,226,3,FALSE,right,avoid,neg,fungus3_crop.jpg,2,23,TRUE,225,1,2964.8108,35,DON'T EAT                                    EAT,2964.1323,2950.0205,2718.87,right,1,left,left,not_eat,not_eat,avoid,neg,avoid-neg,1,1,678.5
sub-035,227,3,FALSE,right,avoid,neg,fungus36_crop.jpg,2,23,TRUE,226,1,2966.7314,35,DON'T EAT                                    EAT,2966.151,2950.0205,2718.87,right,1,left,left,not_eat,not_eat,avoid,neg,avoid-neg,1,1,580.3999999999069
sub-035,228,3,FALSE,right,avoid,neg,fungus18_crop.jpg,2,23,TRUE,227,1,2968.7747,35,DON'T EAT                                    EAT,2968.169,2950.0205,2718.87,right,1,left,left,not_eat,not_eat,avoid,neg,avoid-neg,1,1,605.6999999997206
sub-035,229,3,FALSE,right,avoid,neg,fungus14_crop.jpg,2,23,TRUE,228,1,2970.7708,35,DON'T EAT                                    EAT,2970.1875,2950.0205,2718.87,right,1,left,left,not_eat,not_eat,avoid,neg,avoid-neg,1,1,583.2999999998137
sub-035,230,3,FALSE,right,avoid,neg,fungus11_crop.jpg,2,23,TRUE,229,1,2972.9468,35,DON'T EAT                                    EAT,2972.2058,2950.0205,2718.87,right,1,left,left,not_eat,not_eat,avoid,neg,avoid-neg,1,1,741
sub-035,231,1,TRUE,right,avoid,neg,fungus31_crop.jpg,2,24,TRUE,230,1,2991.1829,35,DON'T EAT                                    EAT,2990.4211,2986.401,2718.87,right,1,left,left,not_eat,not_eat,approach,neg,approach-neg,1,1,761.7999999998137
sub-035,232,1,TRUE,right,avoid,pos,meat21_crop.jpg,2,24,TRUE,231,1,2993.1685,35,DON'T EAT                                    EAT,2992.439,2986.401,2718.87,right,1,left,left,not_eat,not_eat,approach,neg,approach-neg,1,1,729.5
sub-035,233,1,FALSE,right,approach,neg,insect36_crop.jpg,2,24,TRUE,232,2,2995.3594,35,DON'T EAT                                    EAT,2994.4578,2986.401,2718.87,right,2,right,right,eat,eat,approach,neg,approach-neg,1,1,901.5999999996275
sub-035,234,1,FALSE,right,approach,neg,insect35_crop.jpg,2,24,TRUE,233,2,2997.0679,35,DON'T EAT                                    EAT,2996.4758,2986.401,2718.87,right,2,right,right,eat,eat,approach,neg,approach-neg,1,1,592.0999999996275
sub-035,235,1,FALSE,right,approach,neg,insect31_crop.jpg,2,24,TRUE,234,2,2999.088,35,DON'T EAT                                    EAT,2998.4944,2986.401,2718.87,right,2,right,right,eat,eat,approach,neg,approach-neg,1,1,593.6000000000931
sub-035,236,1,FALSE,right,approach,neg,insect23_crop.jpg,2,24,TRUE,235,2,3001.191,35,DON'T EAT                                    EAT,3000.5127,2986.401,2718.87,right,2,right,right,eat,eat,approach,neg,approach-neg,1,1,678.2999999998137
sub-035,237,1,FALSE,right,approach,neg,insect12_crop.jpg,2,24,TRUE,236,2,3003.1353,35,DON'T EAT                                    EAT,3002.531,2986.401,2718.87,right,2,right,right,eat,eat,approach,neg,approach-neg,1,1,604.2999999998137
sub-035,238,1,FALSE,right,approach,neg,insect15_crop.jpg,2,24,TRUE,237,2,3005.1108,35,DON'T EAT                                    EAT,3004.549,2986.401,2718.87,right,2,right,right,eat,eat,approach,neg,approach-neg,1,1,561.7999999998137
sub-035,239,1,FALSE,right,approach,neg,insect9_crop.jpg,2,24,TRUE,238,2,3007.1282,35,DON'T EAT                                    EAT,3006.5676,2986.401,2718.87,right,2,right,right,eat,eat,approach,neg,approach-neg,1,1,560.6000000005588
sub-035,240,1,FALSE,right,approach,neg,insect28_crop.jpg,2,24,TRUE,239,2,3009.0842,35,DON'T EAT                                    EAT,3008.586,2986.401,2718.87,right,2,right,right,eat,eat,approach,neg,approach-neg,1,1,498.1999999997206
sub-035,241,3,FALSE,right,avoid,pos,meat31_crop.jpg,3,25,TRUE,240,1,3242.3145,35,DON'T EAT                                    EAT,3241.3625,3237.3425,3225.4893,left,1,left,left,not_eat,not_eat,avoid,pos,avoid-pos,1,1,952
sub-035,242,3,FALSE,right,avoid,pos,meat24_crop.jpg,3,25,TRUE,241,1,3244.1184,35,DON'T EAT                                    EAT,3243.381,3237.3425,3225.4893,left,1,left,left,not_eat,not_eat,avoid,pos,avoid-pos,1,1,737.3999999999069
sub-035,243,3,FALSE,right,avoid,pos,meat11_crop.jpg,3,25,TRUE,242,1,3246.0498,35,DON'T EAT                                    EAT,3245.3994,3237.3425,3225.4893,left,1,left,left,not_eat,not_eat,avoid,pos,avoid-pos,1,1,650.3999999999069
sub-035,244,3,FALSE,right,avoid,pos,meat20_crop.jpg,3,25,TRUE,243,1,3248.1455,35,DON'T EAT                                    EAT,3247.4177,3237.3425,3225.4893,left,1,left,left,not_eat,not_eat,avoid,pos,avoid-pos,1,1,727.7999999998137
sub-035,245,3,FALSE,right,avoid,pos,meat32_crop.jpg,3,25,TRUE,244,1,3250.0793,35,DON'T EAT                                    EAT,3249.4363,3237.3425,3225.4893,left,1,left,left,not_eat,not_eat,avoid,pos,avoid-pos,1,1,643
sub-035,246,3,FALSE,right,avoid,pos,meat37_crop.jpg,3,25,TRUE,245,1,3252.165,35,DON'T EAT                                    EAT,3251.4543,3237.3425,3225.4893,left,1,left,left,not_eat,not_eat,avoid,pos,avoid-pos,1,1,710.7000000001863
sub-035,247,3,TRUE,right,approach,pos,cake24_crop.jpg,3,25,TRUE,246,1,3253.9585,35,DON'T EAT                                    EAT,3253.4727,3237.3425,3225.4893,left,1,left,left,not_eat,not_eat,avoid,pos,avoid-pos,0,0,485.8000000002794
sub-035,248,3,FALSE,right,avoid,pos,meat30_crop.jpg,3,25,TRUE,247,1,3256.2627,35,DON'T EAT                                    EAT,3255.4912,3237.3425,3225.4893,left,1,left,left,not_eat,not_eat,avoid,pos,avoid-pos,1,1,771.5000000004657
sub-035,249,3,TRUE,right,approach,neg,insect33_crop.jpg,3,25,TRUE,248,2,3258.3018,35,DON'T EAT                                    EAT,3257.5095,3237.3425,3225.4893,left,2,right,right,eat,eat,avoid,pos,avoid-pos,1,1,792.3000000002794
sub-035,250,3,FALSE,right,avoid,pos,meat15_crop.jpg,3,25,TRUE,249,1,3260.374,35,DON'T EAT                                    EAT,3259.5278,3237.3425,3225.4893,left,1,left,left,not_eat,not_eat,avoid,pos,avoid-pos,1,1,846.2000000001863
sub-035,251,2,FALSE,right,approach,pos,cake26_crop.jpg,3,26,TRUE,250,2,3279.6194,35,DON'T EAT                                    EAT,3278.5598,3274.54,3225.4893,left,2,right,right,eat,eat,approach,pos,approach-pos,1,1,1059.6000000000931
sub-035,252,2,FALSE,right,approach,pos,cake35_crop.jpg,3,26,TRUE,251,2,3281.2786,35,DON'T EAT                                    EAT,3280.5786,3274.54,3225.4893,left,2,right,right,eat,eat,approach,pos,approach-pos,1,1,700.0000000004657
sub-035,253,2,FALSE,right,approach,pos,cake31_crop.jpg,3,26,TRUE,252,2,3283.1248,35,DON'T EAT                                    EAT,3282.5972,3274.54,3225.4893,left,2,right,right,eat,eat,approach,pos,approach-pos,1,1,527.6000000000931
sub-035,254,2,FALSE,right,approach,pos,cake19_crop.jpg,3,26,TRUE,253,2,3285.2395,35,DON'T EAT                                    EAT,3284.6155,3274.54,3225.4893,left,2,right,right,eat,eat,approach,pos,approach-pos,1,1,624
sub-035,255,2,FALSE,right,approach,pos,cake2_crop.jpg,3,26,TRUE,254,2,3287.344,35,DON'T EAT                                    EAT,3286.6335,3274.54,3225.4893,left,2,right,right,eat,eat,approach,pos,approach-pos,1,1,710.5
sub-035,256,2,FALSE,right,approach,pos,cake5_crop.jpg,3,26,TRUE,255,2,3289.2698,35,DON'T EAT                                    EAT,3288.652,3274.54,3225.4893,left,2,right,right,eat,eat,approach,pos,approach-pos,1,1,617.7999999998137
sub-035,257,2,FALSE,right,approach,pos,cake9_crop.jpg,3,26,TRUE,256,2,3291.2207,35,DON'T EAT                                    EAT,3290.6704,3274.54,3225.4893,left,2,right,right,eat,eat,approach,pos,approach-pos,1,1,550.2999999998137
sub-035,258,2,FALSE,right,approach,pos,cake3_crop.jpg,3,26,TRUE,257,2,3293.1965,35,DON'T EAT                                    EAT,3292.6887,3274.54,3225.4893,left,2,right,right,eat,eat,approach,pos,approach-pos,1,1,507.79999999981374
sub-035,259,2,TRUE,right,avoid,neg,fungus24_crop.jpg,3,26,TRUE,258,1,3295.6287,35,DON'T EAT                                    EAT,3294.7073,3274.54,3225.4893,left,1,left,left,not_eat,not_eat,approach,pos,approach-pos,1,1,921.4000000003725
sub-035,260,2,TRUE,right,avoid,pos,meat7_crop.jpg,3,26,TRUE,259,1,3297.7856,35,DON'T EAT                                    EAT,3296.7253,3274.54,3225.4893,left,1,left,left,not_eat,not_eat,approach,pos,approach-pos,1,1,1060.2999999998137
sub-035,261,0,FALSE,left,approach,pos,cake24_crop.jpg,3,27,TRUE,260,2,3317.8716,35,DON'T EAT                                    EAT,3316.1748,3312.1548,3225.4893,left,2,right,right,eat,eat,approach,pos,approach-pos,1,1,1696.8000000002794
sub-035,262,0,TRUE,left,avoid,pos,meat37_crop.jpg,3,27,TRUE,261,1,3319.0962,35,DON'T EAT                                    EAT,3318.193,3312.1548,3225.4893,left,1,left,left,not_eat,not_eat,approach,pos,approach-pos,1,1,903.2000000001863
sub-035,263,0,FALSE,left,approach,pos,cake11_crop.jpg,3,27,TRUE,262,2,3320.953,35,DON'T EAT                                    EAT,3320.2117,3312.1548,3225.4893,left,2,right,right,eat,eat,approach,pos,approach-pos,1,1,741.3000000002794
sub-035,264,0,FALSE,left,approach,pos,cake32_crop.jpg,3,27,TRUE,263,2,3322.8347,35,DON'T EAT                                    EAT,3322.23,3312.1548,3225.4893,left,2,right,right,eat,eat,approach,pos,approach-pos,1,1,604.6999999997206
sub-035,265,0,FALSE,left,approach,pos,cake8_crop.jpg,3,27,TRUE,264,2,3324.863,35,DON'T EAT                                    EAT,3324.2483,3312.1548,3225.4893,left,2,right,right,eat,eat,approach,pos,approach-pos,1,1,614.6999999997206
sub-035,266,0,FALSE,left,approach,pos,cake40_crop.jpg,3,27,TRUE,265,2,3326.859,35,DON'T EAT                                    EAT,3326.2666,3312.1548,3225.4893,left,2,right,right,eat,eat,approach,pos,approach-pos,1,1,592.3999999999069
sub-035,267,0,FALSE,left,approach,pos,cake3_crop.jpg,3,27,TRUE,266,2,3328.8599,35,DON'T EAT                                    EAT,3328.2852,3312.1548,3225.4893,left,2,right,right,eat,eat,approach,pos,approach-pos,1,1,574.7000000001863
sub-035,268,0,FALSE,left,approach,pos,cake28_crop.jpg,3,27,TRUE,267,2,3330.9592,35,DON'T EAT                                    EAT,3330.3032,3312.1548,3225.4893,left,2,right,right,eat,eat,approach,pos,approach-pos,1,1,656
sub-035,269,0,TRUE,left,avoid,neg,fungus39_crop.jpg,3,27,TRUE,268,1,3333.4866,35,DON'T EAT                                    EAT,3332.3218,3312.1548,3225.4893,left,1,left,left,not_eat,not_eat,approach,pos,approach-pos,1,1,1164.7999999998137
sub-035,270,0,FALSE,left,approach,pos,cake31_crop.jpg,3,27,TRUE,269,2,3335.156,35,DON'T EAT                                    EAT,3334.3398,3312.1548,3225.4893,left,2,right,right,eat,eat,approach,pos,approach-pos,1,1,816.1999999997206
sub-035,271,0,FALSE,left,avoid,pos,meat29_crop.jpg,3,28,TRUE,270,1,3354.2727,35,DON'T EAT                                    EAT,3353.2556,3349.2356,3225.4893,left,1,left,left,not_eat,not_eat,avoid,pos,avoid-pos,1,1,1017.1000000000931
sub-035,272,0,FALSE,left,avoid,pos,meat35_crop.jpg,3,28,TRUE,271,1,3355.8655,35,DON'T EAT                                    EAT,3355.2742,3349.2356,3225.4893,left,1,left,left,not_eat,not_eat,avoid,pos,avoid-pos,1,1,591.3000000002794
sub-035,273,0,FALSE,left,avoid,pos,meat27_crop.jpg,3,28,TRUE,272,1,3358.1487,35,DON'T EAT                                    EAT,3357.2925,3349.2356,3225.4893,left,1,left,left,not_eat,not_eat,avoid,pos,avoid-pos,1,1,856.2000000001863
sub-035,274,0,FALSE,left,avoid,pos,meat9_crop.jpg,3,28,TRUE,273,1,3359.9497,35,DON'T EAT                                    EAT,3359.3103,3349.2356,3225.4893,left,1,left,left,not_eat,not_eat,avoid,pos,avoid-pos,1,1,639.3999999999069
sub-035,275,0,FALSE,left,avoid,pos,meat8_crop.jpg,3,28,TRUE,274,1,3362.0059,35,DON'T EAT                                    EAT,3361.3289,3349.2356,3225.4893,left,1,left,left,not_eat,not_eat,avoid,pos,avoid-pos,1,1,677
sub-035,276,0,TRUE,left,approach,pos,cake6_crop.jpg,3,28,TRUE,275,2,3364.0876,35,DON'T EAT                                    EAT,3363.3474,3349.2356,3225.4893,left,2,right,right,eat,eat,avoid,pos,avoid-pos,1,1,740.1999999997206
sub-035,277,0,FALSE,left,avoid,pos,meat40_crop.jpg,3,28,TRUE,276,1,3366.1714,35,DON'T EAT                                    EAT,3365.3657,3349.2356,3225.4893,left,1,left,left,not_eat,not_eat,avoid,pos,avoid-pos,1,1,805.7000000006519
sub-035,278,0,FALSE,left,avoid,pos,meat10_crop.jpg,3,28,TRUE,277,1,3368.0183,35,DON'T EAT                                    EAT,3367.384,3349.2356,3225.4893,left,1,left,left,not_eat,not_eat,avoid,pos,avoid-pos,1,1,634.3000000002794
sub-035,279,0,TRUE,left,approach,neg,insect27_crop.jpg,3,28,TRUE,278,2,3370.284,35,DON'T EAT                                    EAT,3369.4023,3349.2356,3225.4893,left,2,right,right,eat,eat,avoid,pos,avoid-pos,1,1,881.6999999997206
sub-035,280,0,FALSE,left,avoid,pos,meat17_crop.jpg,3,28,TRUE,279,1,3372.2043,35,DON'T EAT                                    EAT,3371.421,3349.2356,3225.4893,left,1,left,left,not_eat,not_eat,avoid,pos,avoid-pos,1,1,783.2999999998137
sub-035,281,0,FALSE,right,approach,pos,cake39_crop.jpg,3,29,TRUE,280,2,3390.6394,35,DON'T EAT                                    EAT,3389.7358,3385.716,3225.4893,left,2,right,right,eat,eat,approach,pos,approach-pos,1,1,903.6000000000931
sub-035,282,0,FALSE,right,approach,pos,cake4_crop.jpg,3,29,TRUE,281,2,3392.3896,35,DON'T EAT                                    EAT,3391.7544,3385.716,3225.4893,left,2,right,right,eat,eat,approach,pos,approach-pos,1,1,635.2000000001863
sub-035,283,0,FALSE,right,approach,pos,cake10_crop.jpg,3,29,TRUE,282,2,3394.3218,35,DON'T EAT                                    EAT,3393.7725,3385.716,3225.4893,left,2,right,right,eat,eat,approach,pos,approach-pos,1,1,549.3000000002794
sub-035,284,0,FALSE,right,approach,pos,cake7_crop.jpg,3,29,TRUE,283,2,3396.2866,35,DON'T EAT                                    EAT,3395.791,3385.716,3225.4893,left,2,right,right,eat,eat,approach,pos,approach-pos,1,1,495.60000000009313
sub-035,285,0,TRUE,right,avoid,pos,meat13_crop.jpg,3,29,TRUE,284,1,3398.6873,35,DON'T EAT                                    EAT,3397.8096,3385.716,3225.4893,left,1,left,left,not_eat,not_eat,approach,pos,approach-pos,1,1,877.7000000001863
sub-035,286,0,FALSE,right,approach,pos,cake11_crop.jpg,3,29,TRUE,285,2,3400.5452,35,DON'T EAT                                    EAT,3399.828,3385.716,3225.4893,left,2,right,right,eat,eat,approach,pos,approach-pos,1,1,717.2000000001863
sub-035,287,0,FALSE,right,approach,pos,cake29_crop.jpg,3,29,TRUE,286,2,3402.3245,35,DON'T EAT                                    EAT,3401.8462,3385.716,3225.4893,left,2,right,right,eat,eat,approach,pos,approach-pos,1,1,478.29999999981374
sub-035,288,0,FALSE,right,approach,pos,cake15_crop.jpg,3,29,TRUE,287,2,3404.4348,35,DON'T EAT                                    EAT,3403.8645,3385.716,3225.4893,left,2,right,right,eat,eat,approach,pos,approach-pos,1,1,570.2999999998137
sub-035,289,0,TRUE,right,avoid,neg,fungus29_crop.jpg,3,29,TRUE,288,1,3406.823,35,DON'T EAT                                    EAT,3405.8828,3385.716,3225.4893,left,1,left,left,not_eat,not_eat,approach,pos,approach-pos,1,1,940.2000000001863
sub-035,290,0,FALSE,right,approach,pos,cake1_crop.jpg,3,29,TRUE,289,2,3408.7168,35,DON'T EAT                                    EAT,3407.9011,3385.716,3225.4893,left,2,right,right,eat,eat,approach,pos,approach-pos,1,1,815.7000000001863
sub-035,291,3,FALSE,left,approach,neg,insect8_crop.jpg,3,30,TRUE,290,2,3425.9219,35,DON'T EAT                                    EAT,3424.8818,3420.8618,3225.4893,left,2,right,right,eat,eat,approach,neg,approach-neg,1,1,1040.0999999996275
sub-035,292,3,TRUE,left,avoid,neg,fungus15_crop.jpg,3,30,TRUE,291,1,3427.674,35,DON'T EAT                                    EAT,3426.9,3420.8618,3225.4893,left,1,left,left,not_eat,not_eat,approach,neg,approach-neg,1,1,774
sub-035,293,3,FALSE,left,approach,neg,insect6_crop.jpg,3,30,TRUE,292,2,3429.3855,35,DON'T EAT                                    EAT,3428.9185,3420.8618,3225.4893,left,2,right,right,eat,eat,approach,neg,approach-neg,1,1,467
sub-035,294,3,TRUE,left,avoid,pos,meat3_crop.jpg,3,30,TRUE,293,1,3431.6748,35,DON'T EAT                                    EAT,3430.937,3420.8618,3225.4893,left,1,left,left,not_eat,not_eat,approach,neg,approach-neg,1,1,737.7999999998137
sub-035,295,3,FALSE,left,approach,neg,insect2_crop.jpg,3,30,TRUE,294,2,3433.5913,35,DON'T EAT                                    EAT,3432.9553,3420.8618,3225.4893,left,2,right,right,eat,eat,approach,neg,approach-neg,1,1,635.9999999995343
sub-035,296,3,FALSE,left,approach,neg,insect30_crop.jpg,3,30,TRUE,295,2,3435.6387,35,DON'T EAT                                    EAT,3434.9736,3420.8618,3225.4893,left,2,right,right,eat,eat,approach,neg,approach-neg,1,1,665.1000000005588
sub-035,297,3,FALSE,left,approach,neg,insect12_crop.jpg,3,30,TRUE,296,2,3437.6145,35,DON'T EAT                                    EAT,3436.9922,3420.8618,3225.4893,left,2,right,right,eat,eat,approach,neg,approach-neg,1,1,622.2999999998137
sub-035,298,3,FALSE,left,approach,neg,insect11_crop.jpg,3,30,TRUE,297,2,3439.496,35,DON'T EAT                                    EAT,3439.0103,3420.8618,3225.4893,left,2,right,right,eat,eat,approach,neg,approach-neg,1,1,485.70000000018626
sub-035,299,3,FALSE,left,approach,neg,insect25_crop.jpg,3,30,TRUE,298,2,3441.6653,35,DON'T EAT                                    EAT,3441.0288,3420.8618,3225.4893,left,2,right,right,eat,eat,approach,neg,approach-neg,1,1,636.5000000004657
sub-035,300,3,FALSE,left,approach,neg,insect13_crop.jpg,3,30,TRUE,299,2,3443.62,35,DON'T EAT                                    EAT,3443.047,3420.8618,3225.4893,left,2,right,right,eat,eat,approach,neg,approach-neg,1,1,573
sub-035,301,3,FALSE,left,approach,pos,cake33_crop.jpg,3,31,TRUE,300,2,3463.839,35,DON'T EAT                                    EAT,3462.6133,3458.593,3225.4893,left,2,right,right,eat,eat,approach,pos,approach-pos,1,1,1225.7000000001863
sub-035,302,3,TRUE,left,avoid,neg,fungus6_crop.jpg,3,31,TRUE,301,1,3465.3638,35,DON'T EAT                                    EAT,3464.6316,3458.593,3225.4893,left,1,left,left,not_eat,not_eat,approach,pos,approach-pos,1,1,732.2000000001863
sub-035,303,3,FALSE,left,approach,pos,cake20_crop.jpg,3,31,TRUE,302,2,3467.5806,35,DON'T EAT                                    EAT,3466.6501,3458.593,3225.4893,left,2,right,right,eat,eat,approach,pos,approach-pos,1,1,930.5
sub-035,304,3,TRUE,left,avoid,pos,meat24_crop.jpg,3,31,TRUE,303,1,3469.4248,35,DON'T EAT                                    EAT,3468.668,3458.593,3225.4893,left,1,left,left,not_eat,not_eat,approach,pos,approach-pos,1,1,756.7999999998137
sub-035,305,3,FALSE,left,approach,pos,cake9_crop.jpg,3,31,TRUE,304,2,3471.4456,35,DON'T EAT                                    EAT,3470.6865,3458.593,3225.4893,left,2,right,right,eat,eat,approach,pos,approach-pos,1,1,759.1000000000931
sub-035,306,3,FALSE,left,approach,pos,cake25_crop.jpg,3,31,TRUE,305,2,3473.5393,35,DON'T EAT                                    EAT,3472.7048,3458.593,3225.4893,left,2,right,right,eat,eat,approach,pos,approach-pos,1,1,834.5
sub-035,307,3,FALSE,left,approach,pos,cake13_crop.jpg,3,31,TRUE,306,2,3475.3347,35,DON'T EAT                                    EAT,3474.7231,3458.593,3225.4893,left,2,right,right,eat,eat,approach,pos,approach-pos,1,1,611.5999999996275
sub-035,308,3,FALSE,left,approach,pos,cake23_crop.jpg,3,31,TRUE,307,2,3477.314,35,DON'T EAT                                    EAT,3476.7417,3458.593,3225.4893,left,2,right,right,eat,eat,approach,pos,approach-pos,1,1,572.2999999998137
sub-035,309,3,FALSE,left,approach,pos,cake37_crop.jpg,3,31,TRUE,308,2,3479.3418,35,DON'T EAT                                    EAT,3478.7593,3458.593,3225.4893,left,2,right,right,eat,eat,approach,pos,approach-pos,1,1,582.5
sub-035,310,3,FALSE,left,approach,pos,cake34_crop.jpg,3,31,TRUE,309,2,3481.615,35,DON'T EAT                                    EAT,3480.7783,3458.593,3225.4893,left,2,right,right,eat,eat,approach,pos,approach-pos,1,1,836.7000000001863
sub-035,311,0,TRUE,right,approach,neg,insect30_crop.jpg,3,32,TRUE,310,2,3497.6316,35,DON'T EAT                                    EAT,3496.8582,3492.8381,3225.4893,left,2,right,right,eat,eat,avoid,neg,avoid-neg,1,1,773.3999999999069
sub-035,312,0,FALSE,right,avoid,neg,fungus17_crop.jpg,3,32,TRUE,311,1,3499.69,35,DON'T EAT                                    EAT,3498.8767,3492.8381,3225.4893,left,1,left,left,not_eat,not_eat,avoid,neg,avoid-neg,1,1,813.3000000002794
sub-035,313,0,FALSE,right,avoid,neg,fungus21_crop.jpg,3,32,TRUE,312,1,3501.5532,35,DON'T EAT                                    EAT,3500.895,3492.8381,3225.4893,left,1,left,left,not_eat,not_eat,avoid,neg,avoid-neg,1,1,658.1999999997206
sub-035,314,0,FALSE,right,avoid,neg,fungus1_crop.jpg,3,32,TRUE,313,1,3503.535,35,DON'T EAT                                    EAT,3502.913,3492.8381,3225.4893,left,1,left,left,not_eat,not_eat,avoid,neg,avoid-neg,1,1,622
sub-035,315,0,FALSE,right,avoid,neg,fungus15_crop.jpg,3,32,TRUE,314,1,3505.4915,35,DON'T EAT                                    EAT,3504.9316,3492.8381,3225.4893,left,1,left,left,not_eat,not_eat,avoid,neg,avoid-neg,1,1,559.8999999999069
sub-035,316,0,FALSE,right,avoid,neg,fungus5_crop.jpg,3,32,TRUE,315,1,3507.8486,35,DON'T EAT                                    EAT,3506.9502,3492.8381,3225.4893,left,1,left,left,not_eat,not_eat,avoid,neg,avoid-neg,1,1,898.3999999994412
sub-035,317,0,TRUE,right,approach,pos,cake6_crop.jpg,3,32,TRUE,316,2,3509.616,35,DON'T EAT                                    EAT,3508.9685,3492.8381,3225.4893,left,2,right,right,eat,eat,avoid,neg,avoid-neg,1,1,647.5
sub-035,318,0,FALSE,right,avoid,neg,fungus39_crop.jpg,3,32,TRUE,317,1,3511.5977,35,DON'T EAT                                    EAT,3510.9868,3492.8381,3225.4893,left,1,left,left,not_eat,not_eat,avoid,neg,avoid-neg,1,1,610.8999999994412
sub-035,319,0,FALSE,right,avoid,neg,fungus35_crop.jpg,3,32,TRUE,318,1,3513.5576,35,DON'T EAT                                    EAT,3513.0051,3492.8381,3225.4893,left,1,left,left,not_eat,not_eat,avoid,neg,avoid-neg,1,1,552.5000000004657
sub-035,320,0,FALSE,right,avoid,neg,fungus13_crop.jpg,3,32,TRUE,319,1,3515.582,35,DON'T EAT                                    EAT,3515.0234,3492.8381,3225.4893,left,1,left,left,not_eat,not_eat,avoid,neg,avoid-neg,1,1,558.6000000000931
sub-035,1,1,FALSE,left,avoid,pos,meat39_crop.jpg,4,1,TRUE,0,1,103.73131,35,DON'T EAT                                    EAT,102.73394,98.71396,87.453156,right,1,left,left,not_eat,not_eat,avoid,pos,avoid-pos,1,1,997.3699999999953
sub-035,2,1,FALSE,left,avoid,pos,meat19_crop.jpg,4,1,TRUE,1,1,105.38572,35,DON'T EAT                                    EAT,104.75232,98.71396,87.453156,right,1,left,left,not_eat,not_eat,avoid,pos,avoid-pos,1,1,633.4000000000087
sub-035,3,1,TRUE,left,approach,neg,insect9_crop.jpg,4,1,TRUE,2,2,107.584755,35,DON'T EAT                                    EAT,106.7704,98.71396,87.453156,right,2,right,right,eat,eat,avoid,pos,avoid-pos,1,1,814.3550000000105
sub-035,4,1,FALSE,left,avoid,pos,meat13_crop.jpg,4,1,TRUE,3,1,109.539505,35,DON'T EAT                                    EAT,108.78899,98.71396,87.453156,right,1,left,left,not_eat,not_eat,avoid,pos,avoid-pos,1,1,750.5149999999994
sub-035,5,1,FALSE,left,avoid,pos,meat21_crop.jpg,4,1,TRUE,4,1,111.37653,35,DON'T EAT                                    EAT,110.806984,98.71396,87.453156,right,1,left,left,not_eat,not_eat,avoid,pos,avoid-pos,1,1,569.5460000000021
sub-035,6,1,TRUE,left,approach,pos,cake11_crop.jpg,4,1,TRUE,5,2,113.67779,35,DON'T EAT                                    EAT,112.832535,98.71396,87.453156,right,2,right,right,eat,eat,avoid,pos,avoid-pos,1,1,845.2550000000192
sub-035,7,1,FALSE,left,avoid,pos,meat35_crop.jpg,4,1,TRUE,6,1,115.591225,35,DON'T EAT                                    EAT,114.84782,98.71396,87.453156,right,1,left,left,not_eat,not_eat,avoid,pos,avoid-pos,1,1,743.4049999999988
sub-035,8,1,FALSE,left,avoid,pos,meat36_crop.jpg,4,1,TRUE,7,1,117.38086,35,DON'T EAT                                    EAT,116.86243,98.71396,87.453156,right,1,left,left,not_eat,not_eat,avoid,pos,avoid-pos,1,1,518.429999999993
sub-035,9,1,FALSE,left,avoid,pos,meat30_crop.jpg,4,1,TRUE,8,1,119.58034,35,DON'T EAT                                    EAT,118.88097,98.71396,87.453156,right,1,left,left,not_eat,not_eat,avoid,pos,avoid-pos,1,1,699.3700000000099
sub-035,10,1,FALSE,left,avoid,pos,meat11_crop.jpg,4,1,TRUE,9,1,121.576324,35,DON'T EAT                                    EAT,120.89862,98.71396,87.453156,right,1,left,left,not_eat,not_eat,avoid,pos,avoid-pos,1,1,677.7039999999979
sub-035,11,2,FALSE,left,avoid,neg,fungus17_crop.jpg,4,2,TRUE,10,1,139.49854,35,DON'T EAT                                    EAT,138.63055,134.61049,87.453156,right,1,left,left,not_eat,not_eat,avoid,neg,avoid-neg,1,1,867.9899999999907
sub-035,12,2,TRUE,left,approach,pos,cake24_crop.jpg,4,2,TRUE,11,2,141.4236,35,DON'T EAT                                    EAT,140.64874,134.61049,87.453156,right,2,right,right,eat,eat,avoid,neg,avoid-neg,1,1,774.8600000000151
sub-035,13,2,FALSE,left,avoid,neg,fungus37_crop.jpg,4,2,TRUE,12,1,143.50052,35,DON'T EAT                                    EAT,142.66692,134.61049,87.453156,right,1,left,left,not_eat,not_eat,avoid,neg,avoid-neg,1,1,833.5999999999767
sub-035,14,2,TRUE,left,approach,neg,insect27_crop.jpg,4,2,TRUE,13,2,145.38188,35,DON'T EAT                                    EAT,144.68556,134.61049,87.453156,right,2,right,right,eat,eat,avoid,neg,avoid-neg,1,1,696.320000000007
sub-035,15,2,FALSE,left,avoid,neg,fungus6_crop.jpg,4,2,TRUE,14,1,147.29832,35,DON'T EAT                                    EAT,146.70354,134.61049,87.453156,right,1,left,left,not_eat,not_eat,avoid,neg,avoid-neg,1,1,594.7799999999697
sub-035,16,2,FALSE,left,avoid,neg,fungus8_crop.jpg,4,2,TRUE,15,1,149.34505,35,DON'T EAT                                    EAT,148.72209,134.61049,87.453156,right,1,left,left,not_eat,not_eat,avoid,neg,avoid-neg,1,1,622.9599999999919
sub-035,17,2,FALSE,left,avoid,neg,fungus15_crop.jpg,4,2,TRUE,16,1,151.22034,35,DON'T EAT                                    EAT,150.74062,134.61049,87.453156,right,1,left,left,not_eat,not_eat,avoid,neg,avoid-neg,1,1,479.72000000000116
sub-035,18,2,FALSE,left,avoid,neg,fungus29_crop.jpg,4,2,TRUE,17,1,153.50128,35,DON'T EAT                                    EAT,152.75879,134.61049,87.453156,right,1,left,left,not_eat,not_eat,avoid,neg,avoid-neg,1,1,742.4899999999907
sub-035,19,2,FALSE,left,avoid,neg,fungus25_crop.jpg,4,2,TRUE,18,1,155.35983,35,DON'T EAT                                    EAT,154.77731,134.61049,87.453156,right,1,left,left,not_eat,not_eat,avoid,neg,avoid-neg,1,1,582.5199999999895
sub-035,20,2,FALSE,left,avoid,neg,fungus5_crop.jpg,4,2,TRUE,19,1,157.43896,35,DON'T EAT                                    EAT,156.79527,134.61049,87.453156,right,1,left,left,not_eat,not_eat,avoid,neg,avoid-neg,1,1,643.6900000000314
sub-035,21,3,FALSE,right,avoid,neg,fungus8_crop.jpg,4,3,TRUE,20,1,176.97664,35,DON'T EAT                                    EAT,176.24506,172.22475,87.453156,right,1,left,left,not_eat,not_eat,avoid,neg,avoid-neg,1,1,731.5800000000163
sub-035,22,3,FALSE,right,avoid,neg,fungus31_crop.jpg,4,3,TRUE,21,1,178.82402,35,DON'T EAT                                    EAT,178.26343,172.22475,87.453156,right,1,left,left,not_eat,not_eat,avoid,neg,avoid-neg,1,1,560.5899999999965
sub-035,23,3,FALSE,right,avoid,neg,fungus14_crop.jpg,4,3,TRUE,22,1,180.88867,35,DON'T EAT                                    EAT,180.28163,172.22475,87.453156,right,1,left,left,not_eat,not_eat,avoid,neg,avoid-neg,1,1,607.039999999979
sub-035,24,3,TRUE,right,approach,neg,insect14_crop.jpg,4,3,TRUE,23,2,183.14467,35,DON'T EAT                                    EAT,182.30011,172.22475,87.453156,right,2,right,right,eat,eat,avoid,neg,avoid-neg,1,1,844.5599999999977
sub-035,25,3,FALSE,right,avoid,neg,fungus24_crop.jpg,4,3,TRUE,24,1,185.10014,35,DON'T EAT                                    EAT,184.31842,172.22475,87.453156,right,1,left,left,not_eat,not_eat,avoid,neg,avoid-neg,1,1,781.7200000000012
sub-035,26,3,FALSE,right,avoid,neg,fungus23_crop.jpg,4,3,TRUE,25,1,186.89845,35,DON'T EAT                                    EAT,186.33687,172.22475,87.453156,right,1,left,left,not_eat,not_eat,avoid,neg,avoid-neg,1,1,561.5799999999872
sub-035,27,3,FALSE,right,avoid,neg,fungus38_crop.jpg,4,3,TRUE,26,1,189.45682,35,DON'T EAT                                    EAT,188.3551,172.22475,87.453156,right,1,left,left,not_eat,not_eat,avoid,neg,avoid-neg,1,1,1101.7200000000012
sub-035,28,3,FALSE,right,avoid,neg,fungus16_crop.jpg,4,3,TRUE,27,1,191.26633,35,DON'T EAT                                    EAT,190.37355,172.22475,87.453156,right,1,left,left,not_eat,not_eat,avoid,neg,avoid-neg,1,1,892.7800000000279
sub-035,29,3,FALSE,right,avoid,neg,fungus25_crop.jpg,4,3,TRUE,28,1,193.07968,35,DON'T EAT                                    EAT,192.3917,172.22475,87.453156,right,1,left,left,not_eat,not_eat,avoid,neg,avoid-neg,1,1,687.9800000000105
sub-035,30,3,TRUE,right,approach,pos,cake37_crop.jpg,4,3,TRUE,29,2,195.50185,35,DON'T EAT                                    EAT,194.4101,172.22475,87.453156,right,2,right,right,eat,eat,avoid,neg,avoid-neg,1,1,1091.749999999971
sub-035,31,2,TRUE,left,avoid,pos,meat1_crop.jpg,4,4,TRUE,30,1,213.50705,35,DON'T EAT                                    EAT,212.64189,208.62192,87.453156,right,1,left,left,not_eat,not_eat,approach,neg,approach-neg,1,1,865.1600000000035
sub-035,32,2,FALSE,left,approach,neg,insect19_crop.jpg,4,4,TRUE,31,2,215.39081,35,DON'T EAT                                    EAT,214.66049,208.62192,87.453156,right,2,right,right,eat,eat,approach,neg,approach-neg,1,1,730.3199999999779
sub-035,33,2,FALSE,left,approach,neg,insect37_crop.jpg,4,4,TRUE,32,2,217.46268,35,DON'T EAT                                    EAT,216.67833,208.62192,87.453156,right,2,right,right,eat,eat,approach,neg,approach-neg,1,1,784.3500000000058
sub-035,34,2,FALSE,left,approach,neg,insect32_crop.jpg,4,4,TRUE,33,2,219.29013,35,DON'T EAT                                    EAT,218.69705,208.62192,87.453156,right,2,right,right,eat,eat,approach,neg,approach-neg,1,1,593.0800000000163
sub-035,35,2,FALSE,left,approach,neg,insect25_crop.jpg,4,4,TRUE,34,2,221.17195,35,DON'T EAT                                    EAT,220.71538,208.62192,87.453156,right,2,right,right,eat,eat,approach,neg,approach-neg,1,1,456.570000000007
sub-035,36,2,TRUE,left,avoid,neg,fungus34_crop.jpg,4,4,TRUE,35,1,223.45653,35,DON'T EAT                                    EAT,222.73318,208.62192,87.453156,right,1,left,left,not_eat,not_eat,approach,neg,approach-neg,1,1,723.3500000000058
sub-035,37,2,FALSE,left,approach,neg,insect35_crop.jpg,4,4,TRUE,36,2,225.43806,35,DON'T EAT                                    EAT,224.75194,208.62192,87.453156,right,2,right,right,eat,eat,approach,neg,approach-neg,1,1,686.1199999999953
sub-035,38,2,FALSE,left,approach,neg,insect8_crop.jpg,4,4,TRUE,37,2,227.6031,35,DON'T EAT                                    EAT,226.77037,208.62192,87.453156,right,2,right,right,eat,eat,approach,neg,approach-neg,1,1,832.7299999999814
sub-035,39,2,FALSE,left,approach,neg,insect1_crop.jpg,4,4,TRUE,38,2,229.5276,35,DON'T EAT                                    EAT,228.78873,208.62192,87.453156,right,2,right,right,eat,eat,approach,neg,approach-neg,1,1,738.8700000000244
sub-035,40,2,FALSE,left,approach,neg,insect36_crop.jpg,4,4,TRUE,39,2,231.63773,35,DON'T EAT                                    EAT,230.80708,208.62192,87.453156,right,2,right,right,eat,eat,approach,neg,approach-neg,1,1,830.6499999999942
sub-035,41,3,FALSE,left,approach,pos,cake31_crop.jpg,4,5,TRUE,40,2,248.75299,35,DON'T EAT                                    EAT,247.90459,243.88461,87.453156,right,2,right,right,eat,eat,approach,pos,approach-pos,1,1,848.3999999999942
sub-035,42,3,FALSE,left,approach,pos,cake36_crop.jpg,4,5,TRUE,41,2,250.44225,35,DON'T EAT                                    EAT,249.92296,243.88461,87.453156,right,2,right,right,eat,eat,approach,pos,approach-pos,1,1,519.2900000000081
sub-035,43,3,FALSE,left,approach,pos,cake28_crop.jpg,4,5,TRUE,42,2,252.4048,35,DON'T EAT                                    EAT,251.94101,243.88461,87.453156,right,2,right,right,eat,eat,approach,pos,approach-pos,1,1,463.78999999997905
sub-035,44,3,TRUE,left,avoid,pos,meat24_crop.jpg,4,5,TRUE,43,1,254.79834,35,DON'T EAT                                    EAT,253.95973,243.88461,87.453156,right,1,left,left,not_eat,not_eat,approach,pos,approach-pos,1,1,838.609999999986
sub-035,45,3,FALSE,left,approach,pos,cake4_crop.jpg,4,5,TRUE,44,2,256.75082,35,DON'T EAT                                    EAT,255.9777,243.88461,87.453156,right,2,right,right,eat,eat,approach,pos,approach-pos,1,1,773.1199999999662
sub-035,46,3,FALSE,left,approach,pos,cake3_crop.jpg,4,5,TRUE,45,2,258.55963,35,DON'T EAT                                    EAT,257.99646,243.88461,87.453156,right,2,right,right,eat,eat,approach,pos,approach-pos,1,1,563.1700000000128
sub-035,47,3,FALSE,left,approach,pos,cake33_crop.jpg,4,5,TRUE,46,2,260.6082,35,DON'T EAT                                    EAT,260.01465,243.88461,87.453156,right,2,right,right,eat,eat,approach,pos,approach-pos,1,1,593.5499999999884
sub-035,48,3,FALSE,left,approach,pos,cake16_crop.jpg,4,5,TRUE,47,2,262.53094,35,DON'T EAT                                    EAT,262.03287,243.88461,87.453156,right,2,right,right,eat,eat,approach,pos,approach-pos,1,1,498.070000000007
sub-035,49,3,FALSE,left,approach,pos,cake29_crop.jpg,4,5,TRUE,48,2,264.55786,35,DON'T EAT                                    EAT,264.05096,243.88461,87.453156,right,2,right,right,eat,eat,approach,pos,approach-pos,1,1,506.9000000000233
sub-035,50,3,TRUE,left,avoid,neg,fungus31_crop.jpg,4,5,TRUE,49,2,266.64386,35,DON'T EAT                                    EAT,266.06973,243.88461,87.453156,right,2,right,right,eat,eat,approach,pos,approach-pos,0,0,574.1300000000629
sub-035,51,3,TRUE,right,avoid,neg,fungus15_crop.jpg,4,6,TRUE,50,1,286.42834,35,DON'T EAT                                    EAT,285.25217,281.23196,87.453156,right,1,left,left,not_eat,not_eat,approach,neg,approach-neg,1,1,1176.1699999999837
sub-035,52,3,FALSE,right,approach,neg,insect3_crop.jpg,4,6,TRUE,51,2,288.15967,35,DON'T EAT                                    EAT,287.27063,281.23196,87.453156,right,2,right,right,eat,eat,approach,neg,approach-neg,1,1,889.039999999979
sub-035,53,3,TRUE,right,avoid,pos,meat37_crop.jpg,4,6,TRUE,52,1,290.05304,35,DON'T EAT                                    EAT,289.2889,281.23196,87.453156,right,1,left,left,not_eat,not_eat,approach,neg,approach-neg,1,1,764.140000000014
sub-035,54,3,FALSE,right,approach,neg,insect18_crop.jpg,4,6,TRUE,53,2,292.0935,35,DON'T EAT                                    EAT,291.30746,281.23196,87.453156,right,2,right,right,eat,eat,approach,neg,approach-neg,1,1,786.0400000000373
sub-035,55,3,FALSE,right,approach,neg,insect22_crop.jpg,4,6,TRUE,54,2,293.9263,35,DON'T EAT                                    EAT,293.3256,281.23196,87.453156,right,2,right,right,eat,eat,approach,neg,approach-neg,1,1,600.7000000000116
sub-035,56,3,FALSE,right,approach,neg,insect23_crop.jpg,4,6,TRUE,55,2,295.84317,35,DON'T EAT                                    EAT,295.3439,281.23196,87.453156,right,2,right,right,eat,eat,approach,neg,approach-neg,1,1,499.2699999999604
sub-035,57,3,FALSE,right,approach,neg,insect15_crop.jpg,4,6,TRUE,56,2,297.94315,35,DON'T EAT                                    EAT,297.36252,281.23196,87.453156,right,2,right,right,eat,eat,approach,neg,approach-neg,1,1,580.6300000000047
sub-035,58,3,FALSE,right,approach,neg,insect39_crop.jpg,4,6,TRUE,57,2,300.15515,35,DON'T EAT                                    EAT,299.38074,281.23196,87.453156,right,2,right,right,eat,eat,approach,neg,approach-neg,1,1,774.4099999999744
sub-035,59,3,FALSE,right,approach,neg,insect11_crop.jpg,4,6,TRUE,58,2,302.0037,35,DON'T EAT                                    EAT,301.39883,281.23196,87.453156,right,2,right,right,eat,eat,approach,neg,approach-neg,1,1,604.8699999999953
sub-035,60,3,FALSE,right,approach,neg,insect21_crop.jpg,4,6,TRUE,59,2,303.99005,35,DON'T EAT                                    EAT,303.41745,281.23196,87.453156,right,2,right,right,eat,eat,approach,neg,approach-neg,1,1,572.6000000000349
sub-035,61,1,FALSE,left,approach,pos,cake27_crop.jpg,4,7,TRUE,60,2,321.29776,35,DON'T EAT                                    EAT,320.29807,316.27814,87.453156,right,2,right,right,eat,eat,approach,pos,approach-pos,1,1,999.6900000000023
sub-035,62,1,TRUE,left,avoid,pos,meat10_crop.jpg,4,7,TRUE,61,1,323.0368,35,DON'T EAT                                    EAT,322.31638,316.27814,87.453156,right,1,left,left,not_eat,not_eat,approach,pos,approach-pos,1,1,720.4200000000419
sub-035,63,1,FALSE,left,approach,pos,cake39_crop.jpg,4,7,TRUE,62,2,325.05634,35,DON'T EAT                                    EAT,324.33484,316.27814,87.453156,right,2,right,right,eat,eat,approach,pos,approach-pos,1,1,721.5
sub-035,64,1,TRUE,left,avoid,neg,fungus20_crop.jpg,4,7,TRUE,63,1,327.2402,35,DON'T EAT                                    EAT,326.3531,316.27814,87.453156,right,1,left,left,not_eat,not_eat,approach,pos,approach-pos,1,1,887.1000000000349
sub-035,65,1,FALSE,left,approach,pos,cake34_crop.jpg,4,7,TRUE,64,2,329.15216,35,DON'T EAT                                    EAT,328.3711,316.27814,87.453156,right,2,right,right,eat,eat,approach,pos,approach-pos,1,1,781.0599999999395
sub-035,66,1,FALSE,left,approach,pos,cake9_crop.jpg,4,7,TRUE,65,2,331.27228,35,DON'T EAT                                    EAT,330.38974,316.27814,87.453156,right,2,right,right,eat,eat,approach,pos,approach-pos,1,1,882.5400000000373
sub-035,67,1,FALSE,left,approach,pos,cake19_crop.jpg,4,7,TRUE,66,2,333.0302,35,DON'T EAT                                    EAT,332.4081,316.27814,87.453156,right,2,right,right,eat,eat,approach,pos,approach-pos,1,1,622.0999999999767
sub-035,68,1,FALSE,left,approach,pos,cake7_crop.jpg,4,7,TRUE,67,2,334.94437,35,DON'T EAT                                    EAT,334.42657,316.27814,87.453156,right,2,right,right,eat,eat,approach,pos,approach-pos,1,1,517.7999999999884
sub-035,69,1,FALSE,left,approach,pos,cake1_crop.jpg,4,7,TRUE,68,2,337.25076,35,DON'T EAT                                    EAT,336.44476,316.27814,87.453156,right,2,right,right,eat,eat,approach,pos,approach-pos,1,1,806.0000000000582
sub-035,70,1,FALSE,left,approach,pos,cake40_crop.jpg,4,7,TRUE,69,2,339.49246,35,DON'T EAT                                    EAT,338.4631,316.27814,87.453156,right,2,right,right,eat,eat,approach,pos,approach-pos,1,1,1029.3600000000442
sub-035,71,3,FALSE,left,avoid,pos,meat6_crop.jpg,4,8,TRUE,70,1,358.6422,35,DON'T EAT                                    EAT,357.76257,353.74234,87.453156,right,1,left,left,not_eat,not_eat,avoid,pos,avoid-pos,1,1,879.6300000000047
sub-035,72,3,FALSE,left,avoid,pos,meat12_crop.jpg,4,8,TRUE,71,1,360.28983,35,DON'T EAT                                    EAT,359.78094,353.74234,87.453156,right,1,left,left,not_eat,not_eat,avoid,pos,avoid-pos,1,1,508.89000000001397
sub-035,73,3,FALSE,left,avoid,pos,meat26_crop.jpg,4,8,TRUE,72,1,362.2778,35,DON'T EAT                                    EAT,361.79892,353.74234,87.453156,right,1,left,left,not_eat,not_eat,avoid,pos,avoid-pos,1,1,478.88000000000466
sub-035,74,3,TRUE,left,approach,pos,cake23_crop.jpg,4,8,TRUE,73,2,364.64392,35,DON'T EAT                                    EAT,363.81757,353.74234,87.453156,right,2,right,right,eat,eat,avoid,pos,avoid-pos,1,1,826.3499999999767
sub-035,75,3,FALSE,left,avoid,pos,meat29_crop.jpg,4,8,TRUE,74,1,366.55313,35,DON'T EAT                                    EAT,365.83588,353.74234,87.453156,right,1,left,left,not_eat,not_eat,avoid,pos,avoid-pos,1,1,717.2500000000582
sub-035,76,3,FALSE,left,avoid,pos,meat34_crop.jpg,4,8,TRUE,75,1,368.4687,35,DON'T EAT                                    EAT,367.85422,353.74234,87.453156,right,1,left,left,not_eat,not_eat,avoid,pos,avoid-pos,1,1,614.4800000000396
sub-035,77,3,TRUE,left,approach,neg,insect15_crop.jpg,4,8,TRUE,76,2,370.54794,35,DON'T EAT                                    EAT,369.87253,353.74234,87.453156,right,2,right,right,eat,eat,avoid,pos,avoid-pos,1,1,675.4100000000326
sub-035,78,3,FALSE,left,avoid,pos,meat27_crop.jpg,4,8,TRUE,77,1,372.67493,35,DON'T EAT                                    EAT,371.8909,353.74234,87.453156,right,1,left,left,not_eat,not_eat,avoid,pos,avoid-pos,1,1,784.0300000000279
sub-035,79,3,FALSE,left,avoid,pos,meat40_crop.jpg,4,8,TRUE,78,1,374.50034,35,DON'T EAT                                    EAT,373.90924,353.74234,87.453156,right,1,left,left,not_eat,not_eat,avoid,pos,avoid-pos,1,1,591.0999999999767
sub-035,80,3,FALSE,left,avoid,pos,meat38_crop.jpg,4,8,TRUE,79,1,376.47113,35,DON'T EAT                                    EAT,375.92743,353.74234,87.453156,right,1,left,left,not_eat,not_eat,avoid,pos,avoid-pos,1,1,543.7000000000116
