subject,trial_number,n_block,catch,hand,mot,val,stim_name,run_number,num_block,ran,order,response,time_of_response,subject_number,left_side_resp_label,trial_onset,blk_instr_onset,baseline_onset,response_hand,response_cleaned,response_lat,response_lat_cleaned,response_meaning,response_meaning_cleaned,condition_mot,condition_val,condition,correct,correct_cleaned,rt
sub-155,1,1,FALSE,left,avoid,pos,meat20_crop.jpg,1,1,TRUE,0,2,1304.6132,1550,EAT                                    DON'T EAT,1303.115,1299.0947,1288.5087,right,2,right,right,not_eat,not_eat,avoid,pos,avoid-pos,1,1,1498.1999999999534
sub-155,2,1,FALSE,left,avoid,pos,meat25_crop.jpg,1,1,TRUE,1,2,1306.3138,1550,EAT                                    DON'T EAT,1305.1332,1299.0947,1288.5087,right,2,right,right,not_eat,not_eat,avoid,pos,avoid-pos,1,1,1180.5999999998603
sub-155,3,1,FALSE,left,avoid,pos,meat31_crop.jpg,1,1,TRUE,2,2,1307.9325,1550,EAT                                    DON'T EAT,1307.1516,1299.0947,1288.5087,right,2,right,right,not_eat,not_eat,avoid,pos,avoid-pos,1,1,780.9000000001397
sub-155,4,1,FALSE,left,avoid,pos,meat18_crop.jpg,1,1,TRUE,3,2,1310.1511,1550,EAT                                    DON'T EAT,1309.173,1299.0947,1288.5087,right,2,right,right,not_eat,not_eat,avoid,pos,avoid-pos,1,1,978.1000000000931
sub-155,5,1,FALSE,left,avoid,pos,meat10_crop.jpg,1,1,TRUE,4,2,1311.7926,1550,EAT                                    DON'T EAT,1311.1902,1299.0947,1288.5087,right,2,right,right,not_eat,not_eat,avoid,pos,avoid-pos,1,1,602.4000000001397
sub-155,6,1,FALSE,left,avoid,pos,meat27_crop.jpg,1,1,TRUE,5,2,1313.8265,1550,EAT                                    DON'T EAT,1313.2067,1299.0947,1288.5087,right,2,right,right,not_eat,not_eat,avoid,pos,avoid-pos,1,1,619.8000000000466
sub-155,7,1,FALSE,left,avoid,pos,meat40_crop.jpg,1,1,TRUE,6,2,1315.8895,1550,EAT                                    DON'T EAT,1315.225,1299.0947,1288.5087,right,2,right,right,not_eat,not_eat,avoid,pos,avoid-pos,1,1,664.5
sub-155,8,1,TRUE,left,approach,neg,insect7_crop.jpg,1,1,TRUE,7,1,1317.9784,1550,EAT                                    DON'T EAT,1317.2433,1299.0947,1288.5087,right,1,left,left,eat,eat,avoid,pos,avoid-pos,1,1,735.0999999998603
sub-155,9,1,FALSE,left,avoid,pos,meat26_crop.jpg,1,1,TRUE,8,2,1320.0074,1550,EAT                                    DON'T EAT,1319.2614,1299.0947,1288.5087,right,2,right,right,not_eat,not_eat,avoid,pos,avoid-pos,1,1,745.9999999997672
sub-155,10,1,TRUE,left,approach,pos,cake32_crop.jpg,1,1,TRUE,9,1,1322.4373,1550,EAT                                    DON'T EAT,1321.2802,1299.0947,1288.5087,right,1,left,left,eat,eat,avoid,pos,avoid-pos,1,1,1157.1000000000931
sub-155,11,3,FALSE,left,approach,neg,insect15_crop.jpg,1,2,TRUE,10,1,1341.6218,1550,EAT                                    DON'T EAT,1340.6963,1336.6758,1288.5087,right,1,left,left,eat,eat,approach,neg,approach-neg,1,1,925.4999999997672
sub-155,12,3,FALSE,left,approach,neg,insect18_crop.jpg,1,2,TRUE,11,1,1343.2521,1550,EAT                                    DON'T EAT,1342.7142,1336.6758,1288.5087,right,1,left,left,eat,eat,approach,neg,approach-neg,1,1,537.8999999999069
sub-155,13,3,FALSE,left,approach,neg,insect9_crop.jpg,1,2,TRUE,12,1,1345.2694,1550,EAT                                    DON'T EAT,1344.7328,1336.6758,1288.5087,right,1,left,left,eat,eat,approach,neg,approach-neg,1,1,536.5999999998603
sub-155,14,3,FALSE,left,approach,neg,insect16_crop.jpg,1,2,TRUE,13,1,1347.3003,1550,EAT                                    DON'T EAT,1346.7512,1336.6758,1288.5087,right,1,left,left,eat,eat,approach,neg,approach-neg,1,1,549.1000000000931
sub-155,15,3,TRUE,left,avoid,pos,meat39_crop.jpg,1,2,TRUE,14,2,1349.9092,1550,EAT                                    DON'T EAT,1348.7695,1336.6758,1288.5087,right,2,right,right,not_eat,not_eat,approach,neg,approach-neg,1,1,1139.6999999999534
sub-155,16,3,FALSE,left,approach,neg,insect39_crop.jpg,1,2,TRUE,15,1,1351.43,1550,EAT                                    DON'T EAT,1350.7878,1336.6758,1288.5087,right,1,left,left,eat,eat,approach,neg,approach-neg,1,1,642.1999999999534
sub-155,17,3,TRUE,left,avoid,neg,fungus2_crop.jpg,1,2,TRUE,16,2,1354.0093,1550,EAT                                    DON'T EAT,1352.8062,1336.6758,1288.5087,right,2,right,right,not_eat,not_eat,approach,neg,approach-neg,1,1,1203.1000000000931
sub-155,18,3,FALSE,left,approach,neg,insect3_crop.jpg,1,2,TRUE,17,1,1355.414,1550,EAT                                    DON'T EAT,1354.8245,1336.6758,1288.5087,right,1,left,left,eat,eat,approach,neg,approach-neg,1,1,589.5
sub-155,19,3,FALSE,left,approach,neg,insect27_crop.jpg,1,2,TRUE,18,1,1357.4329,1550,EAT                                    DON'T EAT,1356.8428,1336.6758,1288.5087,right,1,left,left,eat,eat,approach,neg,approach-neg,1,1,590.1000000000931
sub-155,20,3,FALSE,left,approach,neg,insect40_crop.jpg,1,2,TRUE,19,1,1359.3978,1550,EAT                                    DON'T EAT,1358.8612,1336.6758,1288.5087,right,1,left,left,eat,eat,approach,neg,approach-neg,1,1,536.6000000000931
sub-155,21,0,FALSE,right,approach,pos,cake38_crop.jpg,1,3,TRUE,20,1,1376.6046,1550,EAT                                    DON'T EAT,1375.4415,1371.4216,1288.5087,right,1,left,left,eat,eat,approach,pos,approach-pos,1,1,1163.0999999998603
sub-155,22,0,FALSE,right,approach,pos,cake19_crop.jpg,1,3,TRUE,21,1,1378.0385,1550,EAT                                    DON'T EAT,1377.4601,1371.4216,1288.5087,right,1,left,left,eat,eat,approach,pos,approach-pos,1,1,578.3999999999069
sub-155,23,0,FALSE,right,approach,pos,cake11_crop.jpg,1,3,TRUE,22,1,1379.9955,1550,EAT                                    DON'T EAT,1379.4778,1371.4216,1288.5087,right,1,left,left,eat,eat,approach,pos,approach-pos,1,1,517.7000000001863
sub-155,24,0,FALSE,right,approach,pos,cake1_crop.jpg,1,3,TRUE,23,1,1382.1195,1550,EAT                                    DON'T EAT,1381.4967,1371.4216,1288.5087,right,1,left,left,eat,eat,approach,pos,approach-pos,1,1,622.8000000000466
sub-155,25,0,FALSE,right,approach,pos,cake18_crop.jpg,1,3,TRUE,24,1,1384.1892,1550,EAT                                    DON'T EAT,1383.515,1371.4216,1288.5087,right,1,left,left,eat,eat,approach,pos,approach-pos,1,1,674.1999999999534
sub-155,26,0,TRUE,right,avoid,pos,meat33_crop.jpg,1,3,TRUE,25,2,1386.848,1550,EAT                                    DON'T EAT,1385.5334,1371.4216,1288.5087,right,2,right,right,not_eat,not_eat,approach,pos,approach-pos,1,1,1314.5999999998603
sub-155,27,0,FALSE,right,approach,pos,cake15_crop.jpg,1,3,TRUE,26,1,1388.3677,1550,EAT                                    DON'T EAT,1387.5511,1371.4216,1288.5087,right,1,left,left,eat,eat,approach,pos,approach-pos,1,1,816.6000000000931
sub-155,28,0,TRUE,right,avoid,neg,fungus37_crop.jpg,1,3,TRUE,27,2,1390.515,1550,EAT                                    DON'T EAT,1389.5696,1371.4216,1288.5087,right,2,right,right,not_eat,not_eat,approach,pos,approach-pos,1,1,945.3999999999069
sub-155,29,0,FALSE,right,approach,pos,cake27_crop.jpg,1,3,TRUE,28,1,1392.1578,1550,EAT                                    DON'T EAT,1391.5884,1371.4216,1288.5087,right,1,left,left,eat,eat,approach,pos,approach-pos,1,1,569.3999999999069
sub-155,30,0,FALSE,right,approach,pos,cake40_crop.jpg,1,3,TRUE,29,1,1394.2916,1550,EAT                                    DON'T EAT,1393.6067,1371.4216,1288.5087,right,1,left,left,eat,eat,approach,pos,approach-pos,1,1,684.9000000001397
sub-155,31,0,FALSE,left,approach,neg,insect25_crop.jpg,1,4,TRUE,30,1,1412.8391,1550,EAT                                    DON'T EAT,1412.0387,1408.0186,1288.5087,right,1,left,left,eat,eat,approach,neg,approach-neg,1,1,800.3999999999069
sub-155,32,0,FALSE,left,approach,neg,insect32_crop.jpg,1,4,TRUE,31,1,1414.5431,1550,EAT                                    DON'T EAT,1414.0571,1408.0186,1288.5087,right,1,left,left,eat,eat,approach,neg,approach-neg,1,1,486
sub-155,33,0,FALSE,left,approach,neg,insect19_crop.jpg,1,4,TRUE,32,1,1417.0029,1550,EAT                                    DON'T EAT,1416.0753,1408.0186,1288.5087,right,1,left,left,eat,eat,approach,neg,approach-neg,1,1,927.5999999998603
sub-155,34,0,TRUE,left,avoid,neg,fungus17_crop.jpg,1,4,TRUE,33,2,1418.9934,1550,EAT                                    DON'T EAT,1418.0936,1408.0186,1288.5087,right,2,right,right,not_eat,not_eat,approach,neg,approach-neg,1,1,899.8000000002794
sub-155,35,0,FALSE,left,approach,neg,insect6_crop.jpg,1,4,TRUE,34,1,1420.6592,1550,EAT                                    DON'T EAT,1420.1119,1408.0186,1288.5087,right,1,left,left,eat,eat,approach,neg,approach-neg,1,1,547.2999999998137
sub-155,36,0,TRUE,left,avoid,pos,meat34_crop.jpg,1,4,TRUE,35,2,1423.8806,1550,EAT                                    DON'T EAT,1422.1305,1408.0186,1288.5087,right,2,right,right,not_eat,not_eat,approach,neg,approach-neg,1,1,1750.0999999998603
sub-155,37,0,FALSE,left,approach,neg,insect24_crop.jpg,1,4,TRUE,36,1,1425.0767,1550,EAT                                    DON'T EAT,1424.1489,1408.0186,1288.5087,right,1,left,left,eat,eat,approach,neg,approach-neg,1,1,927.8000000002794
sub-155,38,0,FALSE,left,approach,neg,insect5_crop.jpg,1,4,TRUE,37,1,1427.1387,1550,EAT                                    DON'T EAT,1426.1671,1408.0186,1288.5087,right,1,left,left,eat,eat,approach,neg,approach-neg,1,1,971.6000000000931
sub-155,39,0,FALSE,left,approach,neg,insect13_crop.jpg,1,4,TRUE,38,1,1428.6688,1550,EAT                                    DON'T EAT,1428.1854,1408.0186,1288.5087,right,1,left,left,eat,eat,approach,neg,approach-neg,1,1,483.39999999967404
sub-155,40,0,FALSE,left,approach,neg,insect35_crop.jpg,1,4,TRUE,39,1,1430.6371,1550,EAT                                    DON'T EAT,1430.2037,1408.0186,1288.5087,right,1,left,left,eat,eat,approach,neg,approach-neg,1,1,433.39999999990687
sub-155,41,1,FALSE,right,approach,neg,insect38_crop.jpg,1,5,TRUE,40,1,1450.7052,1550,EAT                                    DON'T EAT,1450.0203,1445.9999,1288.5087,right,1,left,left,eat,eat,approach,neg,approach-neg,1,1,684.9000000003725
sub-155,42,1,FALSE,right,approach,neg,insect8_crop.jpg,1,5,TRUE,41,1,1452.5555,1550,EAT                                    DON'T EAT,1452.0382,1445.9999,1288.5087,right,1,left,left,eat,eat,approach,neg,approach-neg,1,1,517.3000000000466
sub-155,43,1,FALSE,right,approach,neg,insect23_crop.jpg,1,5,TRUE,42,1,1454.5963,1550,EAT                                    DON'T EAT,1454.0569,1445.9999,1288.5087,right,1,left,left,eat,eat,approach,neg,approach-neg,1,1,539.399999999674
sub-155,44,1,TRUE,right,avoid,pos,meat38_crop.jpg,1,5,TRUE,43,2,1456.9089,1550,EAT                                    DON'T EAT,1456.0752,1445.9999,1288.5087,right,2,right,right,not_eat,not_eat,approach,neg,approach-neg,1,1,833.6999999999534
sub-155,45,1,FALSE,right,approach,neg,insect11_crop.jpg,1,5,TRUE,44,1,1458.7587,1550,EAT                                    DON'T EAT,1458.0935,1445.9999,1288.5087,right,1,left,left,eat,eat,approach,neg,approach-neg,1,1,665.2000000001863
sub-155,46,1,FALSE,right,approach,neg,insect16_crop.jpg,1,5,TRUE,45,1,1460.7014,1550,EAT                                    DON'T EAT,1460.1118,1445.9999,1288.5087,right,1,left,left,eat,eat,approach,neg,approach-neg,1,1,589.6000000000931
sub-155,47,1,FALSE,right,approach,neg,insect35_crop.jpg,1,5,TRUE,46,1,1462.641,1550,EAT                                    DON'T EAT,1462.1304,1445.9999,1288.5087,right,1,left,left,eat,eat,approach,neg,approach-neg,1,1,510.60000000009313
sub-155,48,1,TRUE,right,avoid,neg,fungus16_crop.jpg,1,5,TRUE,47,2,1465.067,1550,EAT                                    DON'T EAT,1464.1484,1445.9999,1288.5087,right,2,right,right,not_eat,not_eat,approach,neg,approach-neg,1,1,918.5999999998603
sub-155,49,1,FALSE,right,approach,neg,insect25_crop.jpg,1,5,TRUE,48,1,1466.6727,1550,EAT                                    DON'T EAT,1466.1669,1445.9999,1288.5087,right,1,left,left,eat,eat,approach,neg,approach-neg,1,1,505.8000000002794
sub-155,50,1,FALSE,right,approach,neg,insect37_crop.jpg,1,5,TRUE,49,1,1469.1687,1550,EAT                                    DON'T EAT,1468.1853,1445.9999,1288.5087,right,1,left,left,eat,eat,approach,neg,approach-neg,1,1,983.3999999999069
sub-155,51,3,FALSE,left,avoid,pos,meat19_crop.jpg,1,6,TRUE,50,2,1488.7844,1550,EAT                                    DON'T EAT,1487.9182,1483.8982,1288.5087,right,2,right,right,not_eat,not_eat,avoid,pos,avoid-pos,1,1,866.1999999997206
sub-155,52,3,TRUE,left,approach,neg,insect1_crop.jpg,1,6,TRUE,51,1,1490.5907,1550,EAT                                    DON'T EAT,1489.9359,1483.8982,1288.5087,right,1,left,left,eat,eat,avoid,pos,avoid-pos,1,1,654.8000000000466
sub-155,53,3,FALSE,left,avoid,pos,meat28_crop.jpg,1,6,TRUE,52,2,1492.6302,1550,EAT                                    DON'T EAT,1491.955,1483.8982,1288.5087,right,2,right,right,not_eat,not_eat,avoid,pos,avoid-pos,1,1,675.1999999999534
sub-155,54,3,TRUE,left,approach,pos,cake12_crop.jpg,1,6,TRUE,53,1,1495.1609,1550,EAT                                    DON'T EAT,1493.9733,1483.8982,1288.5087,right,1,left,left,eat,eat,avoid,pos,avoid-pos,1,1,1187.6000000000931
sub-155,55,3,FALSE,left,avoid,pos,meat21_crop.jpg,1,6,TRUE,54,2,1496.858,1550,EAT                                    DON'T EAT,1495.9913,1483.8982,1288.5087,right,2,right,right,not_eat,not_eat,avoid,pos,avoid-pos,1,1,866.7000000001863
sub-155,56,3,FALSE,left,avoid,pos,meat36_crop.jpg,1,6,TRUE,55,2,1498.7794,1550,EAT                                    DON'T EAT,1498.0099,1483.8982,1288.5087,right,2,right,right,not_eat,not_eat,avoid,pos,avoid-pos,1,1,769.5
sub-155,57,3,FALSE,left,avoid,pos,meat13_crop.jpg,1,6,TRUE,56,2,1500.682,1550,EAT                                    DON'T EAT,1500.0283,1483.8982,1288.5087,right,2,right,right,not_eat,not_eat,avoid,pos,avoid-pos,1,1,653.6999999999534
sub-155,58,3,FALSE,left,avoid,pos,meat38_crop.jpg,1,6,TRUE,57,2,1502.552,1550,EAT                                    DON'T EAT,1502.0466,1483.8982,1288.5087,right,2,right,right,not_eat,not_eat,avoid,pos,avoid-pos,1,1,505.4000000001397
sub-155,59,3,FALSE,left,avoid,pos,meat29_crop.jpg,1,6,TRUE,58,2,1504.646,1550,EAT                                    DON'T EAT,1504.065,1483.8982,1288.5087,right,2,right,right,not_eat,not_eat,avoid,pos,avoid-pos,1,1,581
sub-155,60,3,FALSE,left,avoid,pos,meat37_crop.jpg,1,6,TRUE,59,2,1506.483,1550,EAT                                    DON'T EAT,1506.083,1483.8982,1288.5087,right,2,right,right,not_eat,not_eat,avoid,pos,avoid-pos,1,1,400
sub-155,61,2,FALSE,right,avoid,pos,meat34_crop.jpg,1,7,TRUE,60,2,1525.6554,1550,EAT                                    DON'T EAT,1524.7155,1520.6954,1288.5087,right,2,right,right,not_eat,not_eat,avoid,pos,avoid-pos,1,1,939.9000000001397
sub-155,62,2,FALSE,right,avoid,pos,meat9_crop.jpg,1,7,TRUE,61,2,1528.5868,1550,EAT                                    DON'T EAT,1526.7338,1520.6954,1288.5087,right,2,right,right,not_eat,not_eat,avoid,pos,avoid-pos,1,1,1853
sub-155,63,2,FALSE,right,avoid,pos,meat11_crop.jpg,1,7,TRUE,62,2,1529.3931,1550,EAT                                    DON'T EAT,1528.7521,1520.6954,1288.5087,right,2,right,right,not_eat,not_eat,avoid,pos,avoid-pos,1,1,641.0000000002328
sub-155,64,2,FALSE,right,avoid,pos,meat25_crop.jpg,1,7,TRUE,63,2,1531.5616,1550,EAT                                    DON'T EAT,1530.7701,1520.6954,1288.5087,right,2,right,right,not_eat,not_eat,avoid,pos,avoid-pos,1,1,791.5000000002328
sub-155,65,2,FALSE,right,avoid,pos,meat14_crop.jpg,1,7,TRUE,64,2,1533.3466,1550,EAT                                    DON'T EAT,1532.7888,1520.6954,1288.5087,right,2,right,right,not_eat,not_eat,avoid,pos,avoid-pos,1,1,557.8000000000466
sub-155,66,2,TRUE,right,approach,neg,insect14_crop.jpg,1,7,TRUE,65,1,1535.2811,1550,EAT                                    DON'T EAT,1534.8073,1520.6954,1288.5087,right,1,left,left,eat,eat,avoid,pos,avoid-pos,1,1,473.79999999981374
sub-155,67,2,FALSE,right,avoid,pos,meat2_crop.jpg,1,7,TRUE,66,2,1537.5731,1550,EAT                                    DON'T EAT,1536.8251,1520.6954,1288.5087,right,2,right,right,not_eat,not_eat,avoid,pos,avoid-pos,1,1,748
sub-155,68,2,FALSE,right,avoid,pos,meat37_crop.jpg,1,7,TRUE,67,2,1539.4048,1550,EAT                                    DON'T EAT,1538.8439,1520.6954,1288.5087,right,2,right,right,not_eat,not_eat,avoid,pos,avoid-pos,1,1,560.8999999999069
sub-155,69,2,TRUE,right,approach,pos,cake4_crop.jpg,1,7,TRUE,68,1,1541.7483,1550,EAT                                    DON'T EAT,1540.8618,1520.6954,1288.5087,right,1,left,left,eat,eat,avoid,pos,avoid-pos,1,1,886.5000000002328
sub-155,70,2,FALSE,right,avoid,pos,meat29_crop.jpg,1,7,TRUE,69,2,1543.5138,1550,EAT                                    DON'T EAT,1542.8806,1520.6954,1288.5087,right,2,right,right,not_eat,not_eat,avoid,pos,avoid-pos,1,1,633.2000000001863
sub-155,71,0,FALSE,left,avoid,neg,fungus11_crop.jpg,1,8,TRUE,70,2,1561.9604,1550,EAT                                    DON'T EAT,1560.8118,1556.7917,1288.5087,right,2,right,right,not_eat,not_eat,avoid,neg,avoid-neg,1,1,1148.5999999998603
sub-155,72,0,FALSE,left,avoid,neg,fungus16_crop.jpg,1,8,TRUE,71,2,1563.4016,1550,EAT                                    DON'T EAT,1562.8303,1556.7917,1288.5087,right,2,right,right,not_eat,not_eat,avoid,neg,avoid-neg,1,1,571.2999999998137
sub-155,73,0,FALSE,left,avoid,neg,fungus21_crop.jpg,1,8,TRUE,72,2,1565.4161,1550,EAT                                    DON'T EAT,1564.8488,1556.7917,1288.5087,right,2,right,right,not_eat,not_eat,avoid,neg,avoid-neg,1,1,567.2999999998137
sub-155,74,0,FALSE,left,avoid,neg,fungus29_crop.jpg,1,8,TRUE,73,2,1567.5227,1550,EAT                                    DON'T EAT,1566.8673,1556.7917,1288.5087,right,2,right,right,not_eat,not_eat,avoid,neg,avoid-neg,1,1,655.4000000001397
sub-155,75,0,FALSE,left,avoid,neg,fungus37_crop.jpg,1,8,TRUE,74,2,1569.6744,1550,EAT                                    DON'T EAT,1568.8854,1556.7917,1288.5087,right,2,right,right,not_eat,not_eat,avoid,neg,avoid-neg,1,1,789.0000000002328
sub-155,76,0,FALSE,left,avoid,neg,fungus5_crop.jpg,1,8,TRUE,75,2,1571.5879,1550,EAT                                    DON'T EAT,1570.9033,1556.7917,1288.5087,right,2,right,right,not_eat,not_eat,avoid,neg,avoid-neg,1,1,684.5999999998603
sub-155,77,0,FALSE,left,avoid,neg,fungus40_crop.jpg,1,8,TRUE,76,2,1573.9478,1550,EAT                                    DON'T EAT,1572.922,1556.7917,1288.5087,right,2,right,right,not_eat,not_eat,avoid,neg,avoid-neg,1,1,1025.7999999998137
sub-155,78,0,TRUE,left,approach,neg,insect29_crop.jpg,1,8,TRUE,77,1,1575.7007,1550,EAT                                    DON'T EAT,1574.9404,1556.7917,1288.5087,right,1,left,left,eat,eat,avoid,neg,avoid-neg,1,1,760.3000000002794
sub-155,79,0,FALSE,left,avoid,neg,fungus20_crop.jpg,1,8,TRUE,78,2,1577.7195,1550,EAT                                    DON'T EAT,1576.9584,1556.7917,1288.5087,right,2,right,right,not_eat,not_eat,avoid,neg,avoid-neg,1,1,761.1000000000931
sub-155,80,0,TRUE,left,approach,pos,cake8_crop.jpg,1,8,TRUE,79,1,1579.6945,1550,EAT                                    DON'T EAT,1578.977,1556.7917,1288.5087,right,1,left,left,eat,eat,avoid,neg,avoid-neg,1,1,717.5
sub-155,81,2,FALSE,left,avoid,pos,meat7_crop.jpg,2,9,TRUE,80,2,1702.9291,1550,EAT                                    DON'T EAT,1701.0785,1697.0583,1685.5704,left,2,right,right,not_eat,not_eat,avoid,pos,avoid-pos,1,1,1850.6000000000931
sub-155,82,2,FALSE,left,avoid,pos,meat17_crop.jpg,2,9,TRUE,81,2,1703.7512,1550,EAT                                    DON'T EAT,1703.0968,1697.0583,1685.5704,left,2,right,right,not_eat,not_eat,avoid,pos,avoid-pos,1,1,654.3999999999069
sub-155,83,2,FALSE,left,avoid,pos,meat8_crop.jpg,2,9,TRUE,82,2,1705.6093,1550,EAT                                    DON'T EAT,1705.1152,1697.0583,1685.5704,left,2,right,right,not_eat,not_eat,avoid,pos,avoid-pos,1,1,494.10000000009313
sub-155,84,2,FALSE,left,avoid,pos,meat16_crop.jpg,2,9,TRUE,83,2,1707.691,1550,EAT                                    DON'T EAT,1707.1334,1697.0583,1685.5704,left,2,right,right,not_eat,not_eat,avoid,pos,avoid-pos,1,1,557.6000000000931
sub-155,85,2,FALSE,left,avoid,pos,meat6_crop.jpg,2,9,TRUE,84,2,1709.6049,1550,EAT                                    DON'T EAT,1709.1517,1697.0583,1685.5704,left,2,right,right,not_eat,not_eat,avoid,pos,avoid-pos,1,1,453.20000000018626
sub-155,86,2,TRUE,left,approach,neg,insect12_crop.jpg,2,9,TRUE,85,1,1711.8326,1550,EAT                                    DON'T EAT,1711.1703,1697.0583,1685.5704,left,1,left,left,eat,eat,avoid,pos,avoid-pos,1,1,662.2999999998137
sub-155,87,2,FALSE,left,avoid,pos,meat4_crop.jpg,2,9,TRUE,86,2,1713.852,1550,EAT                                    DON'T EAT,1713.1885,1697.0583,1685.5704,left,2,right,right,not_eat,not_eat,avoid,pos,avoid-pos,1,1,663.5
sub-155,88,2,FALSE,left,avoid,pos,meat22_crop.jpg,2,9,TRUE,87,2,1715.8607,1550,EAT                                    DON'T EAT,1715.2068,1697.0583,1685.5704,left,2,right,right,not_eat,not_eat,avoid,pos,avoid-pos,1,1,653.9000000001397
sub-155,89,2,TRUE,left,approach,pos,cake9_crop.jpg,2,9,TRUE,88,1,1718.4402,1550,EAT                                    DON'T EAT,1717.2251,1697.0583,1685.5704,left,1,left,left,eat,eat,avoid,pos,avoid-pos,1,1,1215.0999999998603
sub-155,90,2,FALSE,left,avoid,pos,meat24_crop.jpg,2,9,TRUE,89,2,1719.9232,1550,EAT                                    DON'T EAT,1719.2434,1697.0583,1685.5704,left,2,right,right,not_eat,not_eat,avoid,pos,avoid-pos,1,1,679.7999999998137
sub-155,91,0,FALSE,right,avoid,pos,meat23_crop.jpg,2,10,TRUE,90,2,1739.7706,1550,EAT                                    DON'T EAT,1738.7262,1734.7063,1685.5704,left,2,right,right,not_eat,not_eat,avoid,pos,avoid-pos,1,1,1044.4000000001397
sub-155,92,0,FALSE,right,avoid,pos,meat24_crop.jpg,2,10,TRUE,91,2,1741.2295,1550,EAT                                    DON'T EAT,1740.7446,1734.7063,1685.5704,left,2,right,right,not_eat,not_eat,avoid,pos,avoid-pos,1,1,484.89999999990687
sub-155,93,0,FALSE,right,avoid,pos,meat36_crop.jpg,2,10,TRUE,92,2,1743.2589,1550,EAT                                    DON'T EAT,1742.763,1734.7063,1685.5704,left,2,right,right,not_eat,not_eat,avoid,pos,avoid-pos,1,1,495.9000000001397
sub-155,94,0,TRUE,right,approach,pos,cake12_crop.jpg,2,10,TRUE,93,1,1745.5421,1550,EAT                                    DON'T EAT,1744.7814,1734.7063,1685.5704,left,1,left,left,eat,eat,avoid,pos,avoid-pos,1,1,760.6999999997206
sub-155,95,0,FALSE,right,avoid,pos,meat27_crop.jpg,2,10,TRUE,94,2,1747.2855,1550,EAT                                    DON'T EAT,1746.7998,1734.7063,1685.5704,left,2,right,right,not_eat,not_eat,avoid,pos,avoid-pos,1,1,485.69999999995343
sub-155,96,0,FALSE,right,avoid,pos,meat31_crop.jpg,2,10,TRUE,95,2,1749.2626,1550,EAT                                    DON'T EAT,1748.8179,1734.7063,1685.5704,left,2,right,right,not_eat,not_eat,avoid,pos,avoid-pos,1,1,444.70000000018626
sub-155,97,0,TRUE,right,approach,neg,insect6_crop.jpg,2,10,TRUE,96,1,1751.476,1550,EAT                                    DON'T EAT,1750.8358,1734.7063,1685.5704,left,1,left,left,eat,eat,avoid,pos,avoid-pos,1,1,640.1999999999534
sub-155,98,0,FALSE,right,avoid,pos,meat30_crop.jpg,2,10,TRUE,97,2,1753.3612,1550,EAT                                    DON'T EAT,1752.8547,1734.7063,1685.5704,left,2,right,right,not_eat,not_eat,avoid,pos,avoid-pos,1,1,506.49999999976717
sub-155,99,0,FALSE,right,avoid,pos,meat22_crop.jpg,2,10,TRUE,98,2,1755.4006,1550,EAT                                    DON'T EAT,1754.873,1734.7063,1685.5704,left,2,right,right,not_eat,not_eat,avoid,pos,avoid-pos,1,1,527.5999999998603
sub-155,100,0,FALSE,right,avoid,pos,meat39_crop.jpg,2,10,TRUE,99,2,1757.3965,1550,EAT                                    DON'T EAT,1756.8914,1734.7063,1685.5704,left,2,right,right,not_eat,not_eat,avoid,pos,avoid-pos,1,1,505.10000000009313
sub-155,101,0,FALSE,right,avoid,neg,fungus4_crop.jpg,2,11,TRUE,100,2,1776.6914,1550,EAT                                    DON'T EAT,1775.8738,1771.8539,1685.5704,left,2,right,right,not_eat,not_eat,avoid,neg,avoid-neg,1,1,817.5999999998603
sub-155,102,0,FALSE,right,avoid,neg,fungus12_crop.jpg,2,11,TRUE,101,2,1778.5969,1550,EAT                                    DON'T EAT,1777.8918,1771.8539,1685.5704,left,2,right,right,not_eat,not_eat,avoid,neg,avoid-neg,1,1,705.0999999998603
sub-155,103,0,TRUE,right,approach,neg,insect9_crop.jpg,2,11,TRUE,102,1,1780.5875,1550,EAT                                    DON'T EAT,1779.9098,1771.8539,1685.5704,left,1,left,left,eat,eat,avoid,neg,avoid-neg,1,1,677.7000000001863
sub-155,104,0,TRUE,right,approach,pos,cake14_crop.jpg,2,11,TRUE,103,1,1782.728,1550,EAT                                    DON'T EAT,1781.9288,1771.8539,1685.5704,left,1,left,left,eat,eat,avoid,neg,avoid-neg,1,1,799.2000000001863
sub-155,105,0,FALSE,right,avoid,neg,fungus3_crop.jpg,2,11,TRUE,104,2,1784.8236,1550,EAT                                    DON'T EAT,1783.9471,1771.8539,1685.5704,left,2,right,right,not_eat,not_eat,avoid,neg,avoid-neg,1,1,876.4999999997672
sub-155,106,0,FALSE,right,avoid,neg,fungus32_crop.jpg,2,11,TRUE,105,2,1786.6716,1550,EAT                                    DON'T EAT,1785.9655,1771.8539,1685.5704,left,2,right,right,not_eat,not_eat,avoid,neg,avoid-neg,1,1,706.0999999998603
sub-155,107,0,FALSE,right,avoid,neg,fungus26_crop.jpg,2,11,TRUE,106,2,1788.5645,1550,EAT                                    DON'T EAT,1787.9839,1771.8539,1685.5704,left,2,right,right,not_eat,not_eat,avoid,neg,avoid-neg,1,1,580.6000000000931
sub-155,108,0,FALSE,right,avoid,neg,fungus8_crop.jpg,2,11,TRUE,107,2,1790.6642,1550,EAT                                    DON'T EAT,1790.0018,1771.8539,1685.5704,left,2,right,right,not_eat,not_eat,avoid,neg,avoid-neg,1,1,662.3999999999069
sub-155,109,0,FALSE,right,avoid,neg,fungus31_crop.jpg,2,11,TRUE,108,2,1792.6229,1550,EAT                                    DON'T EAT,1792.0205,1771.8539,1685.5704,left,2,right,right,not_eat,not_eat,avoid,neg,avoid-neg,1,1,602.4000000001397
sub-155,110,0,FALSE,right,avoid,neg,fungus34_crop.jpg,2,11,TRUE,109,2,1794.6185,1550,EAT                                    DON'T EAT,1794.039,1771.8539,1685.5704,left,2,right,right,not_eat,not_eat,avoid,neg,avoid-neg,1,1,579.5
sub-155,111,2,FALSE,left,avoid,neg,fungus12_crop.jpg,2,12,TRUE,110,2,1811.5504,1550,EAT                                    DON'T EAT,1810.8027,1806.7827,1685.5704,left,2,right,right,not_eat,not_eat,avoid,neg,avoid-neg,1,1,747.7000000001863
sub-155,112,2,FALSE,left,avoid,neg,fungus6_crop.jpg,2,12,TRUE,111,2,1813.4131,1550,EAT                                    DON'T EAT,1812.8212,1806.7827,1685.5704,left,2,right,right,not_eat,not_eat,avoid,neg,avoid-neg,1,1,591.8999999999069
sub-155,113,2,FALSE,left,avoid,neg,fungus39_crop.jpg,2,12,TRUE,112,2,1815.4601,1550,EAT                                    DON'T EAT,1814.8395,1806.7827,1685.5704,left,2,right,right,not_eat,not_eat,avoid,neg,avoid-neg,1,1,620.6000000000931
sub-155,114,2,FALSE,left,avoid,neg,fungus32_crop.jpg,2,12,TRUE,113,2,1817.3322,1550,EAT                                    DON'T EAT,1816.8578,1806.7827,1685.5704,left,2,right,right,not_eat,not_eat,avoid,neg,avoid-neg,1,1,474.39999999990687
sub-155,115,2,FALSE,left,avoid,neg,fungus10_crop.jpg,2,12,TRUE,114,2,1819.5089,1550,EAT                                    DON'T EAT,1818.876,1806.7827,1685.5704,left,2,right,right,not_eat,not_eat,avoid,neg,avoid-neg,1,1,632.9000000001397
sub-155,116,2,TRUE,left,approach,neg,insect11_crop.jpg,2,12,TRUE,115,1,1821.5074,1550,EAT                                    DON'T EAT,1820.8945,1806.7827,1685.5704,left,1,left,left,eat,eat,avoid,neg,avoid-neg,1,1,612.8999999999069
sub-155,117,2,FALSE,left,avoid,neg,fungus25_crop.jpg,2,12,TRUE,116,2,1823.4185,1550,EAT                                    DON'T EAT,1822.9127,1806.7827,1685.5704,left,2,right,right,not_eat,not_eat,avoid,neg,avoid-neg,1,1,505.79999999981374
sub-155,118,2,FALSE,left,avoid,neg,fungus30_crop.jpg,2,12,TRUE,117,2,1825.5863,1550,EAT                                    DON'T EAT,1824.9312,1806.7827,1685.5704,left,2,right,right,not_eat,not_eat,avoid,neg,avoid-neg,1,1,655.1000000000931
sub-155,119,2,FALSE,left,avoid,neg,fungus19_crop.jpg,2,12,TRUE,118,2,1827.6116,1550,EAT                                    DON'T EAT,1826.9496,1806.7827,1685.5704,left,2,right,right,not_eat,not_eat,avoid,neg,avoid-neg,1,1,662
sub-155,120,2,TRUE,left,approach,pos,cake20_crop.jpg,2,12,TRUE,119,1,1829.7374,1550,EAT                                    DON'T EAT,1828.9679,1806.7827,1685.5704,left,1,left,left,eat,eat,avoid,neg,avoid-neg,1,1,769.4999999997672
sub-155,121,2,FALSE,left,approach,neg,insect10_crop.jpg,2,13,TRUE,120,1,1848.056,1550,EAT                                    DON'T EAT,1847.316,1843.2964,1685.5704,left,1,left,left,eat,eat,approach,neg,approach-neg,1,1,740
sub-155,122,2,FALSE,left,approach,neg,insect33_crop.jpg,2,13,TRUE,121,1,1850.0338,1550,EAT                                    DON'T EAT,1849.3348,1843.2964,1685.5704,left,1,left,left,eat,eat,approach,neg,approach-neg,1,1,698.9999999997672
sub-155,123,2,FALSE,left,approach,neg,insect30_crop.jpg,2,13,TRUE,122,1,1851.8184,1550,EAT                                    DON'T EAT,1851.353,1843.2964,1685.5704,left,1,left,left,eat,eat,approach,neg,approach-neg,1,1,465.4000000001397
sub-155,124,2,FALSE,left,approach,neg,insect8_crop.jpg,2,13,TRUE,123,1,1853.8691,1550,EAT                                    DON'T EAT,1853.3715,1843.2964,1685.5704,left,1,left,left,eat,eat,approach,neg,approach-neg,1,1,497.5999999998603
sub-155,125,2,FALSE,left,approach,neg,insect37_crop.jpg,2,13,TRUE,124,1,1856.083,1550,EAT                                    DON'T EAT,1855.3899,1843.2964,1685.5704,left,1,left,left,eat,eat,approach,neg,approach-neg,1,1,693.1000000000931
sub-155,126,2,TRUE,left,avoid,neg,fungus28_crop.jpg,2,13,TRUE,125,2,1858.1067,1550,EAT                                    DON'T EAT,1857.4086,1843.2964,1685.5704,left,2,right,right,not_eat,not_eat,approach,neg,approach-neg,1,1,698.0999999998603
sub-155,127,2,FALSE,left,approach,neg,insect2_crop.jpg,2,13,TRUE,126,1,1859.9347,1550,EAT                                    DON'T EAT,1859.4264,1843.2964,1685.5704,left,1,left,left,eat,eat,approach,neg,approach-neg,1,1,508.29999999981374
sub-155,128,2,FALSE,left,approach,neg,insect23_crop.jpg,2,13,TRUE,127,1,1861.9094,1550,EAT                                    DON'T EAT,1861.4447,1843.2964,1685.5704,left,1,left,left,eat,eat,approach,neg,approach-neg,1,1,464.69999999995343
sub-155,129,2,FALSE,left,approach,neg,insect21_crop.jpg,2,13,TRUE,128,1,1863.8533,1550,EAT                                    DON'T EAT,1863.4631,1843.2964,1685.5704,left,1,left,left,eat,eat,approach,neg,approach-neg,1,1,390.20000000018626
sub-155,130,2,TRUE,left,avoid,pos,meat5_crop.jpg,2,13,TRUE,129,2,1866.2269,1550,EAT                                    DON'T EAT,1865.4816,1843.2964,1685.5704,left,2,right,right,not_eat,not_eat,approach,neg,approach-neg,1,1,745.2999999998137
sub-155,131,1,FALSE,left,approach,neg,insect20_crop.jpg,2,14,TRUE,130,1,1884.2394,1550,EAT                                    DON'T EAT,1883.1461,1879.1259,1685.5704,left,1,left,left,eat,eat,approach,neg,approach-neg,1,1,1093.3000000000466
sub-155,132,1,FALSE,left,approach,neg,insect17_crop.jpg,2,14,TRUE,131,1,1885.6182,1550,EAT                                    DON'T EAT,1885.1644,1879.1259,1685.5704,left,1,left,left,eat,eat,approach,neg,approach-neg,1,1,453.80000000004657
sub-155,133,1,FALSE,left,approach,neg,insect14_crop.jpg,2,14,TRUE,132,1,1887.7107,1550,EAT                                    DON'T EAT,1887.1827,1879.1259,1685.5704,left,1,left,left,eat,eat,approach,neg,approach-neg,1,1,528.0000000002328
sub-155,134,1,FALSE,left,approach,neg,insect38_crop.jpg,2,14,TRUE,133,1,1889.7716,1550,EAT                                    DON'T EAT,1889.2013,1879.1259,1685.5704,left,1,left,left,eat,eat,approach,neg,approach-neg,1,1,570.3000000000466
sub-155,135,1,FALSE,left,approach,neg,insect22_crop.jpg,2,14,TRUE,134,1,1891.896,1550,EAT                                    DON'T EAT,1891.2195,1879.1259,1685.5704,left,1,left,left,eat,eat,approach,neg,approach-neg,1,1,676.5
sub-155,136,1,TRUE,left,avoid,neg,fungus31_crop.jpg,2,14,TRUE,135,2,1894.4493,1550,EAT                                    DON'T EAT,1893.2374,1879.1259,1685.5704,left,2,right,right,not_eat,not_eat,approach,neg,approach-neg,1,1,1211.9000000001397
sub-155,137,1,FALSE,left,approach,neg,insect36_crop.jpg,2,14,TRUE,136,1,1895.9758,1550,EAT                                    DON'T EAT,1895.2563,1879.1259,1685.5704,left,1,left,left,eat,eat,approach,neg,approach-neg,1,1,719.5
sub-155,138,1,FALSE,left,approach,neg,insect26_crop.jpg,2,14,TRUE,137,1,1898.1147,1550,EAT                                    DON'T EAT,1897.2745,1879.1259,1685.5704,left,1,left,left,eat,eat,approach,neg,approach-neg,1,1,840.2000000001863
sub-155,139,1,FALSE,left,approach,neg,insect31_crop.jpg,2,14,TRUE,138,1,1899.8927,1550,EAT                                    DON'T EAT,1899.2928,1879.1259,1685.5704,left,1,left,left,eat,eat,approach,neg,approach-neg,1,1,599.9000000001397
sub-155,140,1,TRUE,left,avoid,pos,meat35_crop.jpg,2,14,TRUE,139,2,1902.0171,1550,EAT                                    DON'T EAT,1901.3114,1879.1259,1685.5704,left,2,right,right,not_eat,not_eat,approach,neg,approach-neg,1,1,705.6999999999534
sub-155,141,1,FALSE,right,approach,pos,cake8_crop.jpg,2,15,TRUE,140,1,1922.3054,1550,EAT                                    DON'T EAT,1921.2612,1917.241,1685.5704,left,1,left,left,eat,eat,approach,pos,approach-pos,1,1,1044.1999999999534
sub-155,142,1,FALSE,right,approach,pos,cake13_crop.jpg,2,15,TRUE,141,1,1923.9464,1550,EAT                                    DON'T EAT,1923.2794,1917.241,1685.5704,left,1,left,left,eat,eat,approach,pos,approach-pos,1,1,667.0000000002328
sub-155,143,1,FALSE,right,approach,pos,cake9_crop.jpg,2,15,TRUE,142,1,1926.6876,1550,EAT                                    DON'T EAT,1925.2977,1917.241,1685.5704,left,1,left,left,eat,eat,approach,pos,approach-pos,1,1,1389.899999999674
sub-155,144,1,FALSE,right,approach,pos,cake17_crop.jpg,2,15,TRUE,143,1,1927.811,1550,EAT                                    DON'T EAT,1927.3159,1917.241,1685.5704,left,1,left,left,eat,eat,approach,pos,approach-pos,1,1,495.0999999998603
sub-155,145,1,FALSE,right,approach,pos,cake25_crop.jpg,2,15,TRUE,144,1,1930.0115,1550,EAT                                    DON'T EAT,1929.3345,1917.241,1685.5704,left,1,left,left,eat,eat,approach,pos,approach-pos,1,1,677
sub-155,146,1,FALSE,right,approach,pos,cake32_crop.jpg,2,15,TRUE,145,1,1931.9642,1550,EAT                                    DON'T EAT,1931.3529,1917.241,1685.5704,left,1,left,left,eat,eat,approach,pos,approach-pos,1,1,611.2999999998137
sub-155,147,1,TRUE,right,avoid,pos,meat4_crop.jpg,2,15,TRUE,146,2,1934.1436,1550,EAT                                    DON'T EAT,1933.3713,1917.241,1685.5704,left,2,right,right,not_eat,not_eat,approach,pos,approach-pos,1,1,772.3000000000466
sub-155,148,1,TRUE,right,avoid,neg,fungus1_crop.jpg,2,15,TRUE,147,2,1936.1714,1550,EAT                                    DON'T EAT,1935.3895,1917.241,1685.5704,left,2,right,right,not_eat,not_eat,approach,pos,approach-pos,1,1,781.8999999999069
sub-155,149,1,FALSE,right,approach,pos,cake16_crop.jpg,2,15,TRUE,148,1,1938.253,1550,EAT                                    DON'T EAT,1937.4075,1917.241,1685.5704,left,1,left,left,eat,eat,approach,pos,approach-pos,1,1,845.5
sub-155,150,1,FALSE,right,approach,pos,cake2_crop.jpg,2,15,TRUE,149,1,1940.0067,1550,EAT                                    DON'T EAT,1939.4261,1917.241,1685.5704,left,1,left,left,eat,eat,approach,pos,approach-pos,1,1,580.6000000000931
sub-155,151,2,FALSE,left,approach,pos,cake31_crop.jpg,2,16,TRUE,150,1,1956.419,1550,EAT                                    DON'T EAT,1955.6731,1951.6527,1685.5704,left,1,left,left,eat,eat,approach,pos,approach-pos,1,1,745.8999999999069
sub-155,152,2,TRUE,left,avoid,pos,meat15_crop.jpg,2,16,TRUE,151,2,1958.3451,1550,EAT                                    DON'T EAT,1957.6914,1951.6527,1685.5704,left,2,right,right,not_eat,not_eat,approach,pos,approach-pos,1,1,653.7000000001863
sub-155,153,2,TRUE,left,avoid,neg,fungus22_crop.jpg,2,16,TRUE,152,2,1960.4169,1550,EAT                                    DON'T EAT,1959.7096,1951.6527,1685.5704,left,2,right,right,not_eat,not_eat,approach,pos,approach-pos,1,1,707.3000000000466
sub-155,154,2,FALSE,left,approach,pos,cake28_crop.jpg,2,16,TRUE,153,1,1962.2025,1550,EAT                                    DON'T EAT,1961.728,1951.6527,1685.5704,left,1,left,left,eat,eat,approach,pos,approach-pos,1,1,474.5
sub-155,155,2,FALSE,left,approach,pos,cake35_crop.jpg,2,16,TRUE,154,1,1964.7245,1550,EAT                                    DON'T EAT,1963.7463,1951.6527,1685.5704,left,1,left,left,eat,eat,approach,pos,approach-pos,1,1,978.1999999999534
sub-155,156,2,FALSE,left,approach,pos,cake27_crop.jpg,2,16,TRUE,155,1,1966.418,1550,EAT                                    DON'T EAT,1965.7646,1951.6527,1685.5704,left,1,left,left,eat,eat,approach,pos,approach-pos,1,1,653.4000000001397
sub-155,157,2,FALSE,left,approach,pos,cake6_crop.jpg,2,16,TRUE,156,1,1968.4556,1550,EAT                                    DON'T EAT,1967.7832,1951.6527,1685.5704,left,1,left,left,eat,eat,approach,pos,approach-pos,1,1,672.3999999999069
sub-155,158,2,FALSE,left,approach,pos,cake18_crop.jpg,2,16,TRUE,157,1,1970.3188,1550,EAT                                    DON'T EAT,1969.8018,1951.6527,1685.5704,left,1,left,left,eat,eat,approach,pos,approach-pos,1,1,517
sub-155,159,2,FALSE,left,approach,pos,cake29_crop.jpg,2,16,TRUE,158,1,1972.3666,1550,EAT                                    DON'T EAT,1971.8197,1951.6527,1685.5704,left,1,left,left,eat,eat,approach,pos,approach-pos,1,1,546.9000000001397
sub-155,160,2,FALSE,left,approach,pos,cake19_crop.jpg,2,16,TRUE,159,1,1974.5134,1550,EAT                                    DON'T EAT,1973.838,1951.6527,1685.5704,left,1,left,left,eat,eat,approach,pos,approach-pos,1,1,675.4000000001397
sub-155,161,0,FALSE,left,avoid,pos,meat12_crop.jpg,3,17,TRUE,160,2,2065.9373,1550,EAT                                    DON'T EAT,2064.5466,2060.5264,2048.708,right,2,right,right,not_eat,not_eat,avoid,pos,avoid-pos,1,1,1390.6999999999534
sub-155,162,0,FALSE,left,avoid,pos,meat23_crop.jpg,3,17,TRUE,161,2,2067.1353,1550,EAT                                    DON'T EAT,2066.5652,2060.5264,2048.708,right,2,right,right,not_eat,not_eat,avoid,pos,avoid-pos,1,1,570.0999999998603
sub-155,163,0,FALSE,left,avoid,pos,meat3_crop.jpg,3,17,TRUE,162,2,2069.1394,1550,EAT                                    DON'T EAT,2068.5833,2060.5264,2048.708,right,2,right,right,not_eat,not_eat,avoid,pos,avoid-pos,1,1,556.1000000000931
sub-155,164,0,FALSE,left,avoid,pos,meat32_crop.jpg,3,17,TRUE,163,2,2070.9934,1550,EAT                                    DON'T EAT,2070.6016,2060.5264,2048.708,right,2,right,right,not_eat,not_eat,avoid,pos,avoid-pos,1,1,391.80000000004657
sub-155,165,0,TRUE,left,approach,pos,cake17_crop.jpg,3,17,TRUE,164,2,2073.0405,1550,EAT                                    DON'T EAT,2072.62,2060.5264,2048.708,right,2,right,right,not_eat,not_eat,avoid,pos,avoid-pos,0,0,420.5
sub-155,166,0,FALSE,left,avoid,pos,meat2_crop.jpg,3,17,TRUE,165,2,2075.2637,1550,EAT                                    DON'T EAT,2074.6384,2060.5264,2048.708,right,2,right,right,not_eat,not_eat,avoid,pos,avoid-pos,1,1,625.3000000000466
sub-155,167,0,FALSE,left,avoid,pos,meat33_crop.jpg,3,17,TRUE,166,2,2077.4832,1550,EAT                                    DON'T EAT,2076.6567,2060.5264,2048.708,right,2,right,right,not_eat,not_eat,avoid,pos,avoid-pos,1,1,826.5000000002328
sub-155,168,0,FALSE,left,avoid,pos,meat14_crop.jpg,3,17,TRUE,167,2,2079.3848,1550,EAT                                    DON'T EAT,2078.675,2060.5264,2048.708,right,2,right,right,not_eat,not_eat,avoid,pos,avoid-pos,1,1,709.7999999995809
sub-155,169,0,TRUE,left,approach,neg,insect4_crop.jpg,3,17,TRUE,168,1,2081.4312,1550,EAT                                    DON'T EAT,2080.693,2060.5264,2048.708,right,1,left,left,eat,eat,avoid,pos,avoid-pos,1,1,738.1999999997206
sub-155,170,0,FALSE,left,avoid,pos,meat30_crop.jpg,3,17,TRUE,169,2,2084.485,1550,EAT                                    DON'T EAT,2082.7117,2060.5264,2048.708,right,2,right,right,not_eat,not_eat,avoid,pos,avoid-pos,1,1,1773.3000000005122
sub-155,171,1,FALSE,right,avoid,neg,fungus14_crop.jpg,3,18,TRUE,170,2,2101.0032,1550,EAT                                    DON'T EAT,2100.1091,2096.0894,2048.708,right,2,right,right,not_eat,not_eat,avoid,neg,avoid-neg,1,1,894.1000000000931
sub-155,172,1,FALSE,right,avoid,neg,fungus7_crop.jpg,3,18,TRUE,171,2,2102.9395,1550,EAT                                    DON'T EAT,2102.128,2096.0894,2048.708,right,2,right,right,not_eat,not_eat,avoid,neg,avoid-neg,1,1,811.5
sub-155,173,1,FALSE,right,avoid,neg,fungus13_crop.jpg,3,18,TRUE,172,2,2104.8528,1550,EAT                                    DON'T EAT,2104.1458,2096.0894,2048.708,right,2,right,right,not_eat,not_eat,avoid,neg,avoid-neg,1,1,707.0000000004657
sub-155,174,1,FALSE,right,avoid,neg,fungus21_crop.jpg,3,18,TRUE,173,2,2106.7644,1550,EAT                                    DON'T EAT,2106.1646,2096.0894,2048.708,right,2,right,right,not_eat,not_eat,avoid,neg,avoid-neg,1,1,599.7999999998137
sub-155,175,1,FALSE,right,avoid,neg,fungus20_crop.jpg,3,18,TRUE,174,2,2108.8586,1550,EAT                                    DON'T EAT,2108.1829,2096.0894,2048.708,right,2,right,right,not_eat,not_eat,avoid,neg,avoid-neg,1,1,675.7000000001863
sub-155,176,1,FALSE,right,avoid,neg,fungus2_crop.jpg,3,18,TRUE,175,2,2110.8533,1550,EAT                                    DON'T EAT,2110.2007,2096.0894,2048.708,right,2,right,right,not_eat,not_eat,avoid,neg,avoid-neg,1,1,652.6000000005588
sub-155,177,1,FALSE,right,avoid,neg,fungus36_crop.jpg,3,18,TRUE,176,2,2112.9812,1550,EAT                                    DON'T EAT,2112.2192,2096.0894,2048.708,right,2,right,right,not_eat,not_eat,avoid,neg,avoid-neg,1,1,762
sub-155,178,1,TRUE,right,approach,pos,cake29_crop.jpg,3,18,TRUE,177,1,2114.9956,1550,EAT                                    DON'T EAT,2114.2373,2096.0894,2048.708,right,1,left,left,eat,eat,avoid,neg,avoid-neg,1,1,758.3000000002794
sub-155,179,1,TRUE,right,approach,neg,insect7_crop.jpg,3,18,TRUE,178,2,2116.7422,1550,EAT                                    DON'T EAT,2116.2563,2096.0894,2048.708,right,2,right,right,not_eat,not_eat,avoid,neg,avoid-neg,0,0,485.90000000037253
sub-155,180,1,FALSE,right,avoid,neg,fungus29_crop.jpg,3,18,TRUE,179,2,2119.0156,1550,EAT                                    DON'T EAT,2118.2747,2096.0894,2048.708,right,2,right,right,not_eat,not_eat,avoid,neg,avoid-neg,1,1,740.9000000003725
sub-155,181,2,TRUE,right,approach,pos,cake39_crop.jpg,3,19,TRUE,180,1,2135.348,1550,EAT                                    DON'T EAT,2134.5044,2130.5007,2048.708,right,1,left,left,eat,eat,avoid,neg,avoid-neg,1,1,843.6000000000931
sub-155,182,2,FALSE,right,avoid,neg,fungus28_crop.jpg,3,19,TRUE,181,2,2137.3557,1550,EAT                                    DON'T EAT,2136.523,2130.5007,2048.708,right,2,right,right,not_eat,not_eat,avoid,neg,avoid-neg,1,1,832.7000000001863
sub-155,183,2,FALSE,right,avoid,neg,fungus40_crop.jpg,3,19,TRUE,182,2,2139.1843,1550,EAT                                    DON'T EAT,2138.5413,2130.5007,2048.708,right,2,right,right,not_eat,not_eat,avoid,neg,avoid-neg,1,1,643
sub-155,184,2,FALSE,right,avoid,neg,fungus18_crop.jpg,3,19,TRUE,183,2,2141.2327,1550,EAT                                    DON'T EAT,2140.5593,2130.5007,2048.708,right,2,right,right,not_eat,not_eat,avoid,neg,avoid-neg,1,1,673.4000000003725
sub-155,185,2,FALSE,right,avoid,neg,fungus23_crop.jpg,3,19,TRUE,184,2,2143.2695,1550,EAT                                    DON'T EAT,2142.5781,2130.5007,2048.708,right,2,right,right,not_eat,not_eat,avoid,neg,avoid-neg,1,1,691.3999999999069
sub-155,186,2,FALSE,right,avoid,neg,fungus19_crop.jpg,3,19,TRUE,185,2,2145.176,1550,EAT                                    DON'T EAT,2144.5964,2130.5007,2048.708,right,2,right,right,not_eat,not_eat,avoid,neg,avoid-neg,1,1,579.6000000000931
sub-155,187,2,FALSE,right,avoid,neg,fungus33_crop.jpg,3,19,TRUE,186,2,2147.186,1550,EAT                                    DON'T EAT,2146.6147,2130.5007,2048.708,right,2,right,right,not_eat,not_eat,avoid,neg,avoid-neg,1,1,571.2999999998137
sub-155,188,2,FALSE,right,avoid,neg,fungus27_crop.jpg,3,19,TRUE,187,2,2149.1707,1550,EAT                                    DON'T EAT,2148.633,2130.5007,2048.708,right,2,right,right,not_eat,not_eat,avoid,neg,avoid-neg,1,1,537.7000000001863
sub-155,189,2,TRUE,right,approach,neg,insect29_crop.jpg,3,19,TRUE,188,1,2151.412,1550,EAT                                    DON'T EAT,2150.6511,2130.5007,2048.708,right,1,left,left,eat,eat,avoid,neg,avoid-neg,1,1,760.8999999999069
sub-155,190,2,FALSE,right,avoid,neg,fungus15_crop.jpg,3,19,TRUE,189,2,2153.364,1550,EAT                                    DON'T EAT,2152.67,2130.5007,2048.708,right,2,right,right,not_eat,not_eat,avoid,neg,avoid-neg,1,1,694
sub-155,191,3,FALSE,right,approach,pos,cake33_crop.jpg,3,20,TRUE,190,1,2170.8882,1550,EAT                                    DON'T EAT,2169.884,2165.8638,2048.708,right,1,left,left,eat,eat,approach,pos,approach-pos,1,1,1004.1999999997206
sub-155,192,3,FALSE,right,approach,pos,cake20_crop.jpg,3,20,TRUE,191,1,2172.46,1550,EAT                                    DON'T EAT,2171.9023,2165.8638,2048.708,right,1,left,left,eat,eat,approach,pos,approach-pos,1,1,557.6999999997206
sub-155,193,3,FALSE,right,approach,pos,cake35_crop.jpg,3,20,TRUE,192,1,2174.469,1550,EAT                                    DON'T EAT,2173.9204,2165.8638,2048.708,right,1,left,left,eat,eat,approach,pos,approach-pos,1,1,548.6000000000931
sub-155,194,3,TRUE,right,avoid,pos,meat32_crop.jpg,3,20,TRUE,193,2,2176.7483,1550,EAT                                    DON'T EAT,2175.9392,2165.8638,2048.708,right,2,right,right,not_eat,not_eat,approach,pos,approach-pos,1,1,809.1000000005588
sub-155,195,3,FALSE,right,approach,pos,cake31_crop.jpg,3,20,TRUE,194,1,2178.559,1550,EAT                                    DON'T EAT,2177.9573,2165.8638,2048.708,right,1,left,left,eat,eat,approach,pos,approach-pos,1,1,601.7000000001863
sub-155,196,3,FALSE,right,approach,pos,cake3_crop.jpg,3,20,TRUE,195,1,2180.6206,1550,EAT                                    DON'T EAT,2179.9756,2165.8638,2048.708,right,1,left,left,eat,eat,approach,pos,approach-pos,1,1,645
sub-155,197,3,FALSE,right,approach,pos,cake28_crop.jpg,3,20,TRUE,196,1,2182.5793,1550,EAT                                    DON'T EAT,2181.9941,2165.8638,2048.708,right,1,left,left,eat,eat,approach,pos,approach-pos,1,1,585.1999999997206
sub-155,198,3,FALSE,right,approach,pos,cake10_crop.jpg,3,20,TRUE,197,1,2184.5815,1550,EAT                                    DON'T EAT,2184.0125,2165.8638,2048.708,right,1,left,left,eat,eat,approach,pos,approach-pos,1,1,569
sub-155,199,3,FALSE,right,approach,pos,cake23_crop.jpg,3,20,TRUE,198,1,2186.7764,1550,EAT                                    DON'T EAT,2186.031,2165.8638,2048.708,right,1,left,left,eat,eat,approach,pos,approach-pos,1,1,745.4000000003725
sub-155,200,3,TRUE,right,avoid,neg,fungus6_crop.jpg,3,20,TRUE,199,2,2188.8862,1550,EAT                                    DON'T EAT,2188.049,2165.8638,2048.708,right,2,right,right,not_eat,not_eat,approach,pos,approach-pos,1,1,837.1999999997206
sub-155,201,1,TRUE,left,approach,pos,cake39_crop.jpg,3,21,TRUE,200,1,2207.8154,1550,EAT                                    DON'T EAT,2207.0315,2203.0112,2048.708,right,1,left,left,eat,eat,avoid,neg,avoid-neg,1,1,783.8999999999069
sub-155,202,1,FALSE,left,avoid,neg,fungus23_crop.jpg,3,21,TRUE,201,2,2209.745,1550,EAT                                    DON'T EAT,2209.0498,2203.0112,2048.708,right,2,right,right,not_eat,not_eat,avoid,neg,avoid-neg,1,1,695.2000000001863
sub-155,203,1,FALSE,left,avoid,neg,fungus9_crop.jpg,3,21,TRUE,202,2,2211.8616,1550,EAT                                    DON'T EAT,2211.0684,2203.0112,2048.708,right,2,right,right,not_eat,not_eat,avoid,neg,avoid-neg,1,1,793.2000000001863
sub-155,204,1,FALSE,left,avoid,neg,fungus27_crop.jpg,3,21,TRUE,203,2,2213.6455,1550,EAT                                    DON'T EAT,2213.0867,2203.0112,2048.708,right,2,right,right,not_eat,not_eat,avoid,neg,avoid-neg,1,1,558.8000000002794
sub-155,205,1,FALSE,left,avoid,neg,fungus18_crop.jpg,3,21,TRUE,204,2,2215.6328,1550,EAT                                    DON'T EAT,2215.105,2203.0112,2048.708,right,2,right,right,not_eat,not_eat,avoid,neg,avoid-neg,1,1,527.7999999998137
sub-155,206,1,FALSE,left,avoid,neg,fungus3_crop.jpg,3,21,TRUE,205,1,2217.841,1550,EAT                                    DON'T EAT,2217.1233,2203.0112,2048.708,right,1,left,left,eat,eat,avoid,neg,avoid-neg,0,0,717.6999999997206
sub-155,207,1,TRUE,left,approach,neg,insect34_crop.jpg,3,21,TRUE,206,1,2219.7942,1550,EAT                                    DON'T EAT,2219.1416,2203.0112,2048.708,right,1,left,left,eat,eat,avoid,neg,avoid-neg,1,1,652.5999999996275
sub-155,208,1,FALSE,left,avoid,neg,fungus38_crop.jpg,3,21,TRUE,207,2,2221.8225,1550,EAT                                    DON'T EAT,2221.16,2203.0112,2048.708,right,2,right,right,not_eat,not_eat,avoid,neg,avoid-neg,1,1,662.5
sub-155,209,1,FALSE,left,avoid,neg,fungus4_crop.jpg,3,21,TRUE,208,2,2223.715,1550,EAT                                    DON'T EAT,2223.1782,2203.0112,2048.708,right,2,right,right,not_eat,not_eat,avoid,neg,avoid-neg,1,1,536.8000000002794
sub-155,210,1,FALSE,left,avoid,neg,fungus33_crop.jpg,3,21,TRUE,209,2,2225.7246,1550,EAT                                    DON'T EAT,2225.1965,2203.0112,2048.708,right,2,right,right,not_eat,not_eat,avoid,neg,avoid-neg,1,1,528.1000000000931
sub-155,211,1,FALSE,left,approach,pos,cake14_crop.jpg,3,22,TRUE,210,1,2245.0156,1550,EAT                                    DON'T EAT,2243.6453,2239.625,2048.708,right,1,left,left,eat,eat,approach,pos,approach-pos,1,1,1370.2999999998137
sub-155,212,1,FALSE,left,approach,pos,cake4_crop.jpg,3,22,TRUE,211,1,2246.266,1550,EAT                                    DON'T EAT,2245.6636,2239.625,2048.708,right,1,left,left,eat,eat,approach,pos,approach-pos,1,1,602.4000000003725
sub-155,213,1,TRUE,left,avoid,pos,meat11_crop.jpg,3,22,TRUE,212,2,2248.4214,1550,EAT                                    DON'T EAT,2247.682,2239.625,2048.708,right,2,right,right,not_eat,not_eat,approach,pos,approach-pos,1,1,739.4000000003725
sub-155,214,1,FALSE,left,approach,pos,cake16_crop.jpg,3,22,TRUE,213,1,2250.27,1550,EAT                                    DON'T EAT,2249.7002,2239.625,2048.708,right,1,left,left,eat,eat,approach,pos,approach-pos,1,1,569.7999999998137
sub-155,215,1,FALSE,left,approach,pos,cake1_crop.jpg,3,22,TRUE,214,1,2252.3108,1550,EAT                                    DON'T EAT,2251.7183,2239.625,2048.708,right,1,left,left,eat,eat,approach,pos,approach-pos,1,1,592.5000000004657
sub-155,216,1,FALSE,left,approach,pos,cake13_crop.jpg,3,22,TRUE,215,1,2254.2437,1550,EAT                                    DON'T EAT,2253.7368,2239.625,2048.708,right,1,left,left,eat,eat,approach,pos,approach-pos,1,1,506.89999999990687
sub-155,217,1,FALSE,left,approach,pos,cake22_crop.jpg,3,22,TRUE,216,1,2256.327,1550,EAT                                    DON'T EAT,2255.7554,2239.625,2048.708,right,1,left,left,eat,eat,approach,pos,approach-pos,1,1,571.6000000000931
sub-155,218,1,TRUE,left,avoid,neg,fungus26_crop.jpg,3,22,TRUE,217,2,2258.5532,1550,EAT                                    DON'T EAT,2257.7737,2239.625,2048.708,right,2,right,right,not_eat,not_eat,approach,pos,approach-pos,1,1,779.4999999995343
sub-155,219,1,FALSE,left,approach,pos,cake30_crop.jpg,3,22,TRUE,218,1,2260.426,1550,EAT                                    DON'T EAT,2259.7917,2239.625,2048.708,right,1,left,left,eat,eat,approach,pos,approach-pos,1,1,634.2999999998137
sub-155,220,1,FALSE,left,approach,pos,cake33_crop.jpg,3,22,TRUE,219,1,2262.2744,1550,EAT                                    DON'T EAT,2261.8103,2239.625,2048.708,right,1,left,left,eat,eat,approach,pos,approach-pos,1,1,464.09999999962747
sub-155,221,3,TRUE,left,approach,pos,cake5_crop.jpg,3,23,TRUE,220,1,2281.0823,1550,EAT                                    DON'T EAT,2280.3584,2276.3386,2048.708,right,1,left,left,eat,eat,avoid,neg,avoid-neg,1,1,723.8999999999069
sub-155,222,3,TRUE,left,approach,neg,insect28_crop.jpg,3,23,TRUE,221,1,2283.1177,1550,EAT                                    DON'T EAT,2282.3772,2276.3386,2048.708,right,1,left,left,eat,eat,avoid,neg,avoid-neg,1,1,740.5
sub-155,223,3,FALSE,left,avoid,neg,fungus1_crop.jpg,3,23,TRUE,222,2,2285.1023,1550,EAT                                    DON'T EAT,2284.3953,2276.3386,2048.708,right,2,right,right,not_eat,not_eat,avoid,neg,avoid-neg,1,1,706.9999999995343
sub-155,224,3,FALSE,left,avoid,neg,fungus34_crop.jpg,3,23,TRUE,223,2,2287.1716,1550,EAT                                    DON'T EAT,2286.414,2276.3386,2048.708,right,2,right,right,not_eat,not_eat,avoid,neg,avoid-neg,1,1,757.6000000000931
sub-155,225,3,FALSE,left,avoid,neg,fungus24_crop.jpg,3,23,TRUE,224,2,2289.1062,1550,EAT                                    DON'T EAT,2288.4324,2276.3386,2048.708,right,2,right,right,not_eat,not_eat,avoid,neg,avoid-neg,1,1,673.7999999998137
sub-155,226,3,FALSE,left,avoid,neg,fungus15_crop.jpg,3,23,TRUE,225,2,2291.014,1550,EAT                                    DON'T EAT,2290.4502,2276.3386,2048.708,right,2,right,right,not_eat,not_eat,avoid,neg,avoid-neg,1,1,563.7999999998137
sub-155,227,3,FALSE,left,avoid,neg,fungus7_crop.jpg,3,23,TRUE,226,2,2293.0515,1550,EAT                                    DON'T EAT,2292.469,2276.3386,2048.708,right,2,right,right,not_eat,not_eat,avoid,neg,avoid-neg,1,1,582.5
sub-155,228,3,FALSE,left,avoid,neg,fungus35_crop.jpg,3,23,TRUE,227,2,2294.9724,1550,EAT                                    DON'T EAT,2294.4873,2276.3386,2048.708,right,2,right,right,not_eat,not_eat,avoid,neg,avoid-neg,1,1,485.10000000009313
sub-155,229,3,FALSE,left,avoid,neg,fungus36_crop.jpg,3,23,TRUE,228,2,2297.2122,1550,EAT                                    DON'T EAT,2296.5059,2276.3386,2048.708,right,2,right,right,not_eat,not_eat,avoid,neg,avoid-neg,1,1,706.2999999998137
sub-155,230,3,FALSE,left,avoid,neg,fungus14_crop.jpg,3,23,TRUE,229,2,2299.2756,1550,EAT                                    DON'T EAT,2298.524,2276.3386,2048.708,right,2,right,right,not_eat,not_eat,avoid,neg,avoid-neg,1,1,751.6000000000931
sub-155,231,3,FALSE,left,approach,pos,cake36_crop.jpg,3,24,TRUE,230,1,2318.226,1550,EAT                                    DON'T EAT,2317.5398,2313.5198,2048.708,right,1,left,left,eat,eat,approach,pos,approach-pos,1,1,686.2000000001863
sub-155,232,3,FALSE,left,approach,pos,cake23_crop.jpg,3,24,TRUE,231,1,2320.0742,1550,EAT                                    DON'T EAT,2319.558,2313.5198,2048.708,right,1,left,left,eat,eat,approach,pos,approach-pos,1,1,516.2000000001863
sub-155,233,3,TRUE,left,avoid,neg,fungus8_crop.jpg,3,24,TRUE,232,2,2322.4412,1550,EAT                                    DON'T EAT,2321.5764,2313.5198,2048.708,right,2,right,right,not_eat,not_eat,approach,pos,approach-pos,1,1,864.8000000002794
sub-155,234,3,FALSE,left,approach,pos,cake11_crop.jpg,3,24,TRUE,233,1,2324.4268,1550,EAT                                    DON'T EAT,2323.5947,2313.5198,2048.708,right,1,left,left,eat,eat,approach,pos,approach-pos,1,1,832.1000000000931
sub-155,235,3,FALSE,left,approach,pos,cake37_crop.jpg,3,24,TRUE,234,1,2326.478,1550,EAT                                    DON'T EAT,2325.613,2313.5198,2048.708,right,1,left,left,eat,eat,approach,pos,approach-pos,1,1,865
sub-155,236,3,TRUE,left,avoid,pos,meat9_crop.jpg,3,24,TRUE,235,2,2328.401,1550,EAT                                    DON'T EAT,2327.6318,2313.5198,2048.708,right,2,right,right,not_eat,not_eat,approach,pos,approach-pos,1,1,769.1999999997206
sub-155,237,3,FALSE,left,approach,pos,cake24_crop.jpg,3,24,TRUE,236,1,2330.8843,1550,EAT                                    DON'T EAT,2329.65,2313.5198,2048.708,right,1,left,left,eat,eat,approach,pos,approach-pos,1,1,1234.3000000002794
sub-155,238,3,FALSE,left,approach,pos,cake3_crop.jpg,3,24,TRUE,237,1,2332.3215,1550,EAT                                    DON'T EAT,2331.6682,2313.5198,2048.708,right,1,left,left,eat,eat,approach,pos,approach-pos,1,1,653.2999999998137
sub-155,239,3,FALSE,left,approach,pos,cake10_crop.jpg,3,24,TRUE,238,1,2334.3171,1550,EAT                                    DON'T EAT,2333.6865,2313.5198,2048.708,right,1,left,left,eat,eat,approach,pos,approach-pos,1,1,630.6000000000931
sub-155,240,3,FALSE,left,approach,pos,cake7_crop.jpg,3,24,TRUE,239,1,2336.3162,1550,EAT                                    DON'T EAT,2335.705,2313.5198,2048.708,right,1,left,left,eat,eat,approach,pos,approach-pos,1,1,611.2000000001863
sub-155,241,2,FALSE,right,approach,neg,insect30_crop.jpg,4,25,TRUE,240,1,2427.2854,1550,EAT                                    DON'T EAT,2426.2134,2422.193,2410.429,left,1,left,left,eat,eat,approach,neg,approach-neg,1,1,1072.0000000004657
sub-155,242,2,FALSE,right,approach,neg,insect10_crop.jpg,4,25,TRUE,241,1,2428.7593,1550,EAT                                    DON'T EAT,2428.2317,2422.193,2410.429,left,1,left,left,eat,eat,approach,neg,approach-neg,1,1,527.6000000005588
sub-155,243,2,FALSE,right,approach,neg,insect33_crop.jpg,4,25,TRUE,242,1,2430.7124,1550,EAT                                    DON'T EAT,2430.25,2422.193,2410.429,left,1,left,left,eat,eat,approach,neg,approach-neg,1,1,462.39999999990687
sub-155,244,2,FALSE,right,approach,neg,insect28_crop.jpg,4,25,TRUE,243,1,2432.7224,1550,EAT                                    DON'T EAT,2432.2683,2422.193,2410.429,left,1,left,left,eat,eat,approach,neg,approach-neg,1,1,454.09999999962747
sub-155,245,2,FALSE,right,approach,neg,insect13_crop.jpg,4,25,TRUE,244,1,2434.951,1550,EAT                                    DON'T EAT,2434.2866,2422.193,2410.429,left,1,left,left,eat,eat,approach,neg,approach-neg,1,1,664.3999999999069
sub-155,246,2,TRUE,right,avoid,neg,fungus5_crop.jpg,4,25,TRUE,245,2,2437.1367,1550,EAT                                    DON'T EAT,2436.305,2422.193,2410.429,left,2,right,right,not_eat,not_eat,approach,neg,approach-neg,1,1,831.7000000001863
sub-155,247,2,FALSE,right,approach,neg,insect21_crop.jpg,4,25,TRUE,246,1,2439.0632,1550,EAT                                    DON'T EAT,2438.323,2422.193,2410.429,left,1,left,left,eat,eat,approach,neg,approach-neg,1,1,740.2000000001863
sub-155,248,2,TRUE,right,avoid,pos,meat17_crop.jpg,4,25,TRUE,247,2,2441.0684,1550,EAT                                    DON'T EAT,2440.3413,2422.193,2410.429,left,2,right,right,not_eat,not_eat,approach,neg,approach-neg,1,1,727.1000000000931
sub-155,249,2,FALSE,right,approach,neg,insect18_crop.jpg,4,25,TRUE,248,1,2443.0974,1550,EAT                                    DON'T EAT,2442.36,2422.193,2410.429,left,1,left,left,eat,eat,approach,neg,approach-neg,1,1,737.3999999999069
sub-155,250,2,FALSE,right,approach,neg,insect39_crop.jpg,4,25,TRUE,249,1,2445.1792,1550,EAT                                    DON'T EAT,2444.3782,2422.193,2410.429,left,1,left,left,eat,eat,approach,neg,approach-neg,1,1,801
sub-155,251,3,FALSE,right,approach,neg,insect19_crop.jpg,4,26,TRUE,250,1,2461.744,1550,EAT                                    DON'T EAT,2460.808,2456.7888,2410.429,left,1,left,left,eat,eat,approach,neg,approach-neg,1,1,936
sub-155,252,3,FALSE,right,approach,neg,insect17_crop.jpg,4,26,TRUE,251,1,2463.4421,1550,EAT                                    DON'T EAT,2462.8271,2456.7888,2410.429,left,1,left,left,eat,eat,approach,neg,approach-neg,1,1,615
sub-155,253,3,FALSE,right,approach,neg,insect4_crop.jpg,4,26,TRUE,252,1,2465.4353,1550,EAT                                    DON'T EAT,2464.8452,2456.7888,2410.429,left,1,left,left,eat,eat,approach,neg,approach-neg,1,1,590.1000000000931
sub-155,254,3,FALSE,right,approach,neg,insect12_crop.jpg,4,26,TRUE,253,1,2467.6968,1550,EAT                                    DON'T EAT,2466.8638,2456.7888,2410.429,left,1,left,left,eat,eat,approach,neg,approach-neg,1,1,833
sub-155,255,3,TRUE,right,avoid,neg,fungus24_crop.jpg,4,26,TRUE,254,2,2469.566,1550,EAT                                    DON'T EAT,2468.8818,2456.7888,2410.429,left,2,right,right,not_eat,not_eat,approach,neg,approach-neg,1,1,684.1999999997206
sub-155,256,3,TRUE,right,avoid,pos,meat28_crop.jpg,4,26,TRUE,255,2,2471.625,1550,EAT                                    DON'T EAT,2470.9001,2456.7888,2410.429,left,2,right,right,not_eat,not_eat,approach,neg,approach-neg,1,1,724.9000000003725
sub-155,257,3,FALSE,right,approach,neg,insect40_crop.jpg,4,26,TRUE,256,1,2473.637,1550,EAT                                    DON'T EAT,2472.9187,2456.7888,2410.429,left,1,left,left,eat,eat,approach,neg,approach-neg,1,1,718.2999999998137
sub-155,258,3,FALSE,right,approach,neg,insect34_crop.jpg,4,26,TRUE,257,1,2475.4531,1550,EAT                                    DON'T EAT,2474.937,2456.7888,2410.429,left,1,left,left,eat,eat,approach,neg,approach-neg,1,1,516.1000000000931
sub-155,259,3,FALSE,right,approach,neg,insect5_crop.jpg,4,26,TRUE,258,1,2477.4548,1550,EAT                                    DON'T EAT,2476.955,2456.7888,2410.429,left,1,left,left,eat,eat,approach,neg,approach-neg,1,1,499.79999999981374
sub-155,260,3,FALSE,right,approach,neg,insect15_crop.jpg,4,26,TRUE,259,1,2479.5022,1550,EAT                                    DON'T EAT,2478.9739,2456.7888,2410.429,left,1,left,left,eat,eat,approach,neg,approach-neg,1,1,528.2999999998137
sub-155,261,0,FALSE,left,approach,pos,cake38_crop.jpg,4,27,TRUE,260,1,2499.768,1550,EAT                                    DON'T EAT,2498.8066,2494.7869,2410.429,left,1,left,left,eat,eat,approach,pos,approach-pos,1,1,961.3999999999069
sub-155,262,0,TRUE,left,avoid,neg,fungus13_crop.jpg,4,27,TRUE,261,2,2501.5835,1550,EAT                                    DON'T EAT,2500.8247,2494.7869,2410.429,left,2,right,right,not_eat,not_eat,approach,pos,approach-pos,1,1,758.7999999998137
sub-155,263,0,TRUE,left,avoid,pos,meat1_crop.jpg,4,27,TRUE,262,2,2503.9048,1550,EAT                                    DON'T EAT,2502.8433,2494.7869,2410.429,left,2,right,right,not_eat,not_eat,approach,pos,approach-pos,1,1,1061.5
sub-155,264,0,FALSE,left,approach,pos,cake40_crop.jpg,4,27,TRUE,263,1,2505.6716,1550,EAT                                    DON'T EAT,2504.8618,2494.7869,2410.429,left,1,left,left,eat,eat,approach,pos,approach-pos,1,1,809.7999999998137
sub-155,265,0,FALSE,left,approach,pos,cake21_crop.jpg,4,27,TRUE,264,1,2508.0303,1550,EAT                                    DON'T EAT,2506.8804,2494.7869,2410.429,left,1,left,left,eat,eat,approach,pos,approach-pos,1,1,1149.8999999999069
sub-155,266,0,FALSE,left,approach,pos,cake15_crop.jpg,4,27,TRUE,265,1,2509.721,1550,EAT                                    DON'T EAT,2508.8987,2494.7869,2410.429,left,1,left,left,eat,eat,approach,pos,approach-pos,1,1,822.2999999998137
sub-155,267,0,FALSE,left,approach,pos,cake34_crop.jpg,4,27,TRUE,266,1,2511.9294,1550,EAT                                    DON'T EAT,2510.917,2494.7869,2410.429,left,1,left,left,eat,eat,approach,pos,approach-pos,1,1,1012.3999999999069
sub-155,268,0,FALSE,left,approach,pos,cake25_crop.jpg,4,27,TRUE,267,1,2513.7046,1550,EAT                                    DON'T EAT,2512.9353,2494.7869,2410.429,left,1,left,left,eat,eat,approach,pos,approach-pos,1,1,769.2999999998137
sub-155,269,0,FALSE,left,approach,pos,cake26_crop.jpg,4,27,TRUE,268,1,2515.5537,1550,EAT                                    DON'T EAT,2514.9536,2494.7869,2410.429,left,1,left,left,eat,eat,approach,pos,approach-pos,1,1,600.1000000000931
sub-155,270,0,FALSE,left,approach,pos,cake2_crop.jpg,4,27,TRUE,269,1,2517.796,1550,EAT                                    DON'T EAT,2516.9717,2494.7869,2410.429,left,1,left,left,eat,eat,approach,pos,approach-pos,1,1,824.2999999998137
sub-155,271,2,FALSE,right,approach,pos,cake22_crop.jpg,4,28,TRUE,270,1,2536.663,1550,EAT                                    DON'T EAT,2535.7043,2531.684,2410.429,left,1,left,left,eat,eat,approach,pos,approach-pos,1,1,958.7000000001863
sub-155,272,2,TRUE,right,avoid,pos,meat21_crop.jpg,4,28,TRUE,271,2,2538.474,1550,EAT                                    DON'T EAT,2537.7224,2531.684,2410.429,left,2,right,right,not_eat,not_eat,approach,pos,approach-pos,1,1,751.6000000000931
sub-155,273,2,FALSE,right,approach,pos,cake36_crop.jpg,4,28,TRUE,272,1,2540.2163,1550,EAT                                    DON'T EAT,2539.741,2531.684,2410.429,left,1,left,left,eat,eat,approach,pos,approach-pos,1,1,475.29999999981374
sub-155,274,2,FALSE,right,approach,pos,cake37_crop.jpg,4,28,TRUE,273,1,2542.3264,1550,EAT                                    DON'T EAT,2541.7593,2531.684,2410.429,left,1,left,left,eat,eat,approach,pos,approach-pos,1,1,567.0999999996275
sub-155,275,2,TRUE,right,avoid,neg,fungus11_crop.jpg,4,28,TRUE,274,2,2544.6636,1550,EAT                                    DON'T EAT,2543.7776,2531.684,2410.429,left,2,right,right,not_eat,not_eat,approach,pos,approach-pos,1,1,885.9999999995343
sub-155,276,2,FALSE,right,approach,pos,cake34_crop.jpg,4,28,TRUE,275,1,2546.3962,1550,EAT                                    DON'T EAT,2545.796,2531.684,2410.429,left,1,left,left,eat,eat,approach,pos,approach-pos,1,1,600.2000000001863
sub-155,277,2,FALSE,right,approach,pos,cake5_crop.jpg,4,28,TRUE,276,1,2548.687,1550,EAT                                    DON'T EAT,2547.8142,2531.684,2410.429,left,1,left,left,eat,eat,approach,pos,approach-pos,1,1,872.8000000002794
sub-155,278,2,FALSE,right,approach,pos,cake24_crop.jpg,4,28,TRUE,277,1,2550.4446,1550,EAT                                    DON'T EAT,2549.8325,2531.684,2410.429,left,1,left,left,eat,eat,approach,pos,approach-pos,1,1,612.0999999996275
sub-155,279,2,FALSE,right,approach,pos,cake7_crop.jpg,4,28,TRUE,278,1,2552.6284,1550,EAT                                    DON'T EAT,2551.8508,2531.684,2410.429,left,1,left,left,eat,eat,approach,pos,approach-pos,1,1,777.5999999996275
sub-155,280,2,FALSE,right,approach,pos,cake6_crop.jpg,4,28,TRUE,279,1,2554.5222,1550,EAT                                    DON'T EAT,2553.869,2531.684,2410.429,left,1,left,left,eat,eat,approach,pos,approach-pos,1,1,653.1999999997206
sub-155,281,3,FALSE,right,avoid,neg,fungus39_crop.jpg,4,29,TRUE,280,2,2573.4343,1550,EAT                                    DON'T EAT,2572.6013,2568.5815,2410.429,left,2,right,right,not_eat,not_eat,avoid,neg,avoid-neg,1,1,833
sub-155,282,3,FALSE,right,avoid,neg,fungus10_crop.jpg,4,29,TRUE,281,2,2575.3787,1550,EAT                                    DON'T EAT,2574.6199,2568.5815,2410.429,left,2,right,right,not_eat,not_eat,avoid,neg,avoid-neg,1,1,758.7999999998137
sub-155,283,3,TRUE,right,approach,pos,cake30_crop.jpg,4,29,TRUE,282,1,2577.4001,1550,EAT                                    DON'T EAT,2576.6382,2568.5815,2410.429,left,1,left,left,eat,eat,avoid,neg,avoid-neg,1,1,761.8999999999069
sub-155,284,3,TRUE,right,approach,neg,insect22_crop.jpg,4,29,TRUE,283,1,2579.3271,1550,EAT                                    DON'T EAT,2578.6565,2568.5815,2410.429,left,1,left,left,eat,eat,avoid,neg,avoid-neg,1,1,670.6000000000931
sub-155,285,3,FALSE,right,avoid,neg,fungus9_crop.jpg,4,29,TRUE,284,2,2581.3564,1550,EAT                                    DON'T EAT,2580.6746,2568.5815,2410.429,left,2,right,right,not_eat,not_eat,avoid,neg,avoid-neg,1,1,681.8000000002794
sub-155,286,3,FALSE,right,avoid,neg,fungus17_crop.jpg,4,29,TRUE,285,2,2583.347,1550,EAT                                    DON'T EAT,2582.693,2568.5815,2410.429,left,2,right,right,not_eat,not_eat,avoid,neg,avoid-neg,1,1,654
sub-155,287,3,FALSE,right,avoid,neg,fungus30_crop.jpg,4,29,TRUE,286,2,2585.3662,1550,EAT                                    DON'T EAT,2584.7114,2568.5815,2410.429,left,2,right,right,not_eat,not_eat,avoid,neg,avoid-neg,1,1,654.7999999993481
sub-155,288,3,FALSE,right,avoid,neg,fungus25_crop.jpg,4,29,TRUE,287,2,2587.4343,1550,EAT                                    DON'T EAT,2586.73,2568.5815,2410.429,left,2,right,right,not_eat,not_eat,avoid,neg,avoid-neg,1,1,704.2999999998137
sub-155,289,3,FALSE,right,avoid,neg,fungus38_crop.jpg,4,29,TRUE,288,2,2589.277,1550,EAT                                    DON'T EAT,2588.748,2568.5815,2410.429,left,2,right,right,not_eat,not_eat,avoid,neg,avoid-neg,1,1,529
sub-155,290,3,FALSE,right,avoid,neg,fungus35_crop.jpg,4,29,TRUE,289,2,2591.3918,1550,EAT                                    DON'T EAT,2590.7659,2568.5815,2410.429,left,2,right,right,not_eat,not_eat,avoid,neg,avoid-neg,1,1,625.8999999999069
sub-155,291,3,FALSE,right,avoid,pos,meat35_crop.jpg,4,30,TRUE,290,2,2610.0415,1550,EAT                                    DON'T EAT,2609.0818,2605.0618,2410.429,left,2,right,right,not_eat,not_eat,avoid,pos,avoid-pos,1,1,959.7000000001863
sub-155,292,3,FALSE,right,avoid,pos,meat8_crop.jpg,4,30,TRUE,291,2,2611.6794,1550,EAT                                    DON'T EAT,2611.1,2605.0618,2410.429,left,2,right,right,not_eat,not_eat,avoid,pos,avoid-pos,1,1,579.3999999999069
sub-155,293,3,TRUE,right,approach,neg,insect36_crop.jpg,4,30,TRUE,292,1,2614.2327,1550,EAT                                    DON'T EAT,2613.1184,2605.0618,2410.429,left,1,left,left,eat,eat,avoid,pos,avoid-pos,1,1,1114.3000000002794
sub-155,294,3,TRUE,right,approach,pos,cake26_crop.jpg,4,30,TRUE,293,1,2616.1926,1550,EAT                                    DON'T EAT,2615.1367,2605.0618,2410.429,left,1,left,left,eat,eat,avoid,pos,avoid-pos,1,1,1055.8999999994412
sub-155,295,3,FALSE,right,avoid,pos,meat13_crop.jpg,4,30,TRUE,294,2,2617.786,1550,EAT                                    DON'T EAT,2617.155,2605.0618,2410.429,left,2,right,right,not_eat,not_eat,avoid,pos,avoid-pos,1,1,631
sub-155,296,3,FALSE,right,avoid,pos,meat5_crop.jpg,4,30,TRUE,295,2,2619.7021,1550,EAT                                    DON'T EAT,2619.1733,2605.0618,2410.429,left,2,right,right,not_eat,not_eat,avoid,pos,avoid-pos,1,1,528.8000000002794
sub-155,297,3,FALSE,right,avoid,pos,meat1_crop.jpg,4,30,TRUE,296,2,2621.8967,1550,EAT                                    DON'T EAT,2621.1917,2605.0618,2410.429,left,2,right,right,not_eat,not_eat,avoid,pos,avoid-pos,1,1,705
sub-155,298,3,FALSE,right,avoid,pos,meat26_crop.jpg,4,30,TRUE,297,2,2623.884,1550,EAT                                    DON'T EAT,2623.2102,2605.0618,2410.429,left,2,right,right,not_eat,not_eat,avoid,pos,avoid-pos,1,1,673.7999999998137
sub-155,299,3,FALSE,right,avoid,pos,meat6_crop.jpg,4,30,TRUE,298,2,2625.985,1550,EAT                                    DON'T EAT,2625.2285,2605.0618,2410.429,left,2,right,right,not_eat,not_eat,avoid,pos,avoid-pos,1,1,756.5
sub-155,300,3,FALSE,right,avoid,pos,meat10_crop.jpg,4,30,TRUE,299,2,2627.9314,1550,EAT                                    DON'T EAT,2627.2468,2605.0618,2410.429,left,2,right,right,not_eat,not_eat,avoid,pos,avoid-pos,1,1,684.6000000000931
sub-155,301,0,FALSE,right,approach,neg,insect3_crop.jpg,4,31,TRUE,300,1,2647.985,1550,EAT                                    DON'T EAT,2647.1965,2643.1768,2410.429,left,1,left,left,eat,eat,approach,neg,approach-neg,1,1,788.5
sub-155,302,0,FALSE,right,approach,neg,insect27_crop.jpg,4,31,TRUE,301,1,2649.793,1550,EAT                                    DON'T EAT,2649.215,2643.1768,2410.429,left,1,left,left,eat,eat,approach,neg,approach-neg,1,1,578
sub-155,303,0,FALSE,right,approach,neg,insect20_crop.jpg,4,31,TRUE,302,1,2651.9302,1550,EAT                                    DON'T EAT,2651.233,2643.1768,2410.429,left,1,left,left,eat,eat,approach,neg,approach-neg,1,1,697.1999999997206
sub-155,304,0,FALSE,right,approach,neg,insect32_crop.jpg,4,31,TRUE,303,1,2653.8096,1550,EAT                                    DON'T EAT,2653.2517,2643.1768,2410.429,left,1,left,left,eat,eat,approach,neg,approach-neg,1,1,557.9000000003725
sub-155,305,0,FALSE,right,approach,neg,insect24_crop.jpg,4,31,TRUE,304,1,2655.842,1550,EAT                                    DON'T EAT,2655.27,2643.1768,2410.429,left,1,left,left,eat,eat,approach,neg,approach-neg,1,1,572
sub-155,306,0,TRUE,right,avoid,pos,meat18_crop.jpg,4,31,TRUE,305,2,2658.0374,1550,EAT                                    DON'T EAT,2657.2883,2643.1768,2410.429,left,2,right,right,not_eat,not_eat,approach,neg,approach-neg,1,1,749.1000000000931
sub-155,307,0,FALSE,right,approach,neg,insect1_crop.jpg,4,31,TRUE,306,1,2660.0193,1550,EAT                                    DON'T EAT,2659.3062,2643.1768,2410.429,left,1,left,left,eat,eat,approach,neg,approach-neg,1,1,713.0999999996275
sub-155,308,0,FALSE,right,approach,neg,insect26_crop.jpg,4,31,TRUE,307,1,2662.0432,1550,EAT                                    DON'T EAT,2661.325,2643.1768,2410.429,left,1,left,left,eat,eat,approach,neg,approach-neg,1,1,718.2000000001863
sub-155,309,0,FALSE,right,approach,neg,insect31_crop.jpg,4,31,TRUE,308,1,2663.9316,1550,EAT                                    DON'T EAT,2663.3433,2643.1768,2410.429,left,1,left,left,eat,eat,approach,neg,approach-neg,1,1,588.3000000002794
sub-155,310,0,TRUE,right,avoid,neg,fungus22_crop.jpg,4,31,TRUE,309,2,2666.027,1550,EAT                                    DON'T EAT,2665.3618,2643.1768,2410.429,left,2,right,right,not_eat,not_eat,approach,neg,approach-neg,1,1,665.1999999997206
sub-155,311,1,FALSE,right,avoid,pos,meat15_crop.jpg,4,32,TRUE,310,2,2683.2317,1550,EAT                                    DON'T EAT,2682.359,2678.3555,2410.429,left,2,right,right,not_eat,not_eat,avoid,pos,avoid-pos,1,1,872.6999999997206
sub-155,312,1,TRUE,right,approach,pos,cake21_crop.jpg,4,32,TRUE,311,1,2685.1907,1550,EAT                                    DON'T EAT,2684.3777,2678.3555,2410.429,left,1,left,left,eat,eat,avoid,pos,avoid-pos,1,1,813
sub-155,313,1,FALSE,right,avoid,pos,meat7_crop.jpg,4,32,TRUE,312,2,2686.9756,1550,EAT                                    DON'T EAT,2686.396,2678.3555,2410.429,left,2,right,right,not_eat,not_eat,avoid,pos,avoid-pos,1,1,579.6000000000931
sub-155,314,1,FALSE,right,avoid,pos,meat40_crop.jpg,4,32,TRUE,313,2,2689.8362,1550,EAT                                    DON'T EAT,2688.414,2678.3555,2410.429,left,2,right,right,not_eat,not_eat,avoid,pos,avoid-pos,1,1,1422.2000000001863
sub-155,315,1,TRUE,right,approach,neg,insect2_crop.jpg,4,32,TRUE,314,1,2691.0981,1550,EAT                                    DON'T EAT,2690.4324,2678.3555,2410.429,left,1,left,left,eat,eat,avoid,pos,avoid-pos,1,1,665.6999999997206
sub-155,316,1,FALSE,right,avoid,pos,meat12_crop.jpg,4,32,TRUE,315,2,2693.1453,1550,EAT                                    DON'T EAT,2692.451,2678.3555,2410.429,left,2,right,right,not_eat,not_eat,avoid,pos,avoid-pos,1,1,694.3000000002794
sub-155,317,1,FALSE,right,avoid,pos,meat19_crop.jpg,4,32,TRUE,316,2,2695.1658,1550,EAT                                    DON'T EAT,2694.4692,2678.3555,2410.429,left,2,right,right,not_eat,not_eat,avoid,pos,avoid-pos,1,1,696.6000000000931
sub-155,318,1,FALSE,right,avoid,pos,meat20_crop.jpg,4,32,TRUE,317,2,2697.0464,1550,EAT                                    DON'T EAT,2696.4875,2678.3555,2410.429,left,2,right,right,not_eat,not_eat,avoid,pos,avoid-pos,1,1,558.9000000003725
sub-155,319,1,FALSE,right,avoid,pos,meat16_crop.jpg,4,32,TRUE,318,2,2699.254,1550,EAT                                    DON'T EAT,2698.5059,2678.3555,2410.429,left,2,right,right,not_eat,not_eat,avoid,pos,avoid-pos,1,1,748.1000000000931
sub-155,320,1,FALSE,right,avoid,pos,meat3_crop.jpg,4,32,TRUE,319,2,2701.082,1550,EAT                                    DON'T EAT,2700.5242,2678.3555,2410.429,left,2,right,right,not_eat,not_eat,avoid,pos,avoid-pos,1,1,557.8000000002794
