TrialNumber,n_block,catch,hand,mot,val,stim_name,run_number,num_block,ran,order,response,RT,Subject number,n_b,left_side_resp_label,trial_onset,blk_instr_onset,baseline_onset
1,2,False,right,approach,neg,insect19_crop.jpg,1,1,1.0,0.0,2,72.59918,111.0,1.0,DON'T EAT                                    EAT,71.118164,67.097916,55.54481
2,2,False,right,approach,neg,insect26_crop.jpg,1,1,1.0,1.0,2,74.566925,111.0,1.0,DON'T EAT                                    EAT,73.136375,67.097916,55.54481
3,2,False,right,approach,neg,insect27_crop.jpg,1,1,1.0,2.0,2,76.37228,111.0,1.0,DON'T EAT                                    EAT,75.15473,67.097916,55.54481
4,2,False,right,approach,neg,insect13_crop.jpg,1,1,1.0,3.0,2,78.12326,111.0,1.0,DON'T EAT                                    EAT,77.17298,67.097916,55.54481
5,2,False,right,approach,neg,insect4_crop.jpg,1,1,1.0,4.0,2,80.10166,111.0,1.0,DON'T EAT                                    EAT,79.19131,67.097916,55.54481
6,2,True,right,avoid,pos,meat25_crop.jpg,1,1,1.0,5.0,2,82.73169,111.0,1.0,DON'T EAT                                    EAT,81.20964,67.097916,55.54481
7,2,False,right,approach,neg,insect5_crop.jpg,1,1,1.0,6.0,2,84.113144,111.0,1.0,DON'T EAT                                    EAT,83.23348,67.097916,55.54481
8,2,False,right,approach,neg,insect6_crop.jpg,1,1,1.0,7.0,2,86.09689,111.0,1.0,DON'T EAT                                    EAT,85.24948,67.097916,55.54481
9,2,False,right,approach,neg,insect10_crop.jpg,1,1,1.0,8.0,2,88.2918,111.0,1.0,DON'T EAT                                    EAT,87.2647,67.097916,55.54481
10,2,True,right,avoid,neg,fungus7_crop.jpg,1,1,1.0,9.0,1,90.39644,111.0,1.0,DON'T EAT                                    EAT,89.28314,67.097916,55.54481
11,1,True,right,avoid,pos,meat1_crop.jpg,1,2,1.0,10.0,1,108.40516,111.0,2.0,DON'T EAT                                    EAT,106.7977,102.777626,55.54481
12,1,False,right,approach,neg,insect15_crop.jpg,1,2,1.0,11.0,2,109.69251,111.0,2.0,DON'T EAT                                    EAT,108.81592,102.777626,55.54481
13,1,False,right,approach,neg,insect40_crop.jpg,1,2,1.0,12.0,2,111.6602,111.0,2.0,DON'T EAT                                    EAT,110.83424,102.777626,55.54481
14,1,False,right,approach,neg,insect22_crop.jpg,1,2,1.0,13.0,2,113.64029,111.0,2.0,DON'T EAT                                    EAT,112.85259,102.777626,55.54481
15,1,False,right,approach,neg,insect39_crop.jpg,1,2,1.0,14.0,2,115.75906,111.0,2.0,DON'T EAT                                    EAT,114.87091,102.777626,55.54481
16,1,True,right,avoid,neg,fungus37_crop.jpg,1,2,1.0,15.0,1,117.95087,111.0,2.0,DON'T EAT                                    EAT,116.889275,102.777626,55.54481
17,1,False,right,approach,neg,insect12_crop.jpg,1,2,1.0,16.0,2,119.76331,111.0,2.0,DON'T EAT                                    EAT,118.90773,102.777626,55.54481
18,1,False,right,approach,neg,insect34_crop.jpg,1,2,1.0,17.0,2,122.073555,111.0,2.0,DON'T EAT                                    EAT,120.92545,102.777626,55.54481
19,1,False,right,approach,neg,insect29_crop.jpg,1,2,1.0,18.0,2,124.07853,111.0,2.0,DON'T EAT                                    EAT,122.94429,102.777626,55.54481
20,1,False,right,approach,neg,insect35_crop.jpg,1,2,1.0,19.0,2,126.11629,111.0,2.0,DON'T EAT                                    EAT,124.96273,102.777626,55.54481
21,1,False,right,avoid,neg,fungus14_crop.jpg,1,3,1.0,20.0,1,144.83022,111.0,3.0,DON'T EAT                                    EAT,143.64485,139.62483,55.54481
22,1,False,right,avoid,neg,fungus40_crop.jpg,1,3,1.0,21.0,1,147.10631,111.0,3.0,DON'T EAT                                    EAT,145.66327,139.62483,55.54481
23,1,True,right,approach,neg,insect2_crop.jpg,1,3,1.0,22.0,2,148.69972,111.0,3.0,DON'T EAT                                    EAT,147.68147,139.62483,55.54481
24,1,False,right,avoid,neg,fungus35_crop.jpg,1,3,1.0,23.0,1,150.84325,111.0,3.0,DON'T EAT                                    EAT,149.70026,139.62483,55.54481
25,1,False,right,avoid,neg,fungus18_crop.jpg,1,3,1.0,24.0,1,152.79901,111.0,3.0,DON'T EAT                                    EAT,151.71822,139.62483,55.54481
26,1,False,right,avoid,neg,fungus32_crop.jpg,1,3,1.0,25.0,1,155.03015,111.0,3.0,DON'T EAT                                    EAT,153.73653,139.62483,55.54481
27,1,False,right,avoid,neg,fungus26_crop.jpg,1,3,1.0,26.0,1,157.04431,111.0,3.0,DON'T EAT                                    EAT,155.75485,139.62483,55.54481
28,1,True,right,approach,pos,cake32_crop.jpg,1,3,1.0,27.0,2,159.10771,111.0,3.0,DON'T EAT                                    EAT,157.77322,139.62483,55.54481
29,1,False,right,avoid,neg,fungus9_crop.jpg,1,3,1.0,28.0,1,161.09436,111.0,3.0,DON'T EAT                                    EAT,159.79152,139.62483,55.54481
30,1,False,right,avoid,neg,fungus12_crop.jpg,1,3,1.0,29.0,1,163.48508,111.0,3.0,DON'T EAT                                    EAT,161.8097,139.62483,55.54481
31,0,False,left,avoid,neg,fungus3_crop.jpg,1,4,1.0,30.0,1,179.6351,111.0,4.0,DON'T EAT                                    EAT,178.2903,174.27025,55.54481
32,0,False,left,avoid,neg,fungus7_crop.jpg,1,4,1.0,31.0,1,181.32799,111.0,4.0,DON'T EAT                                    EAT,180.30872,174.27025,55.54481
33,0,True,left,approach,pos,cake13_crop.jpg,1,4,1.0,32.0,2,183.52342,111.0,4.0,DON'T EAT                                    EAT,182.32703,174.27025,55.54481
34,0,False,left,avoid,neg,fungus10_crop.jpg,1,4,1.0,33.0,1,185.27988,111.0,4.0,DON'T EAT                                    EAT,184.34541,174.27025,55.54481
35,0,False,left,avoid,neg,fungus6_crop.jpg,1,4,1.0,34.0,1,187.41042,111.0,4.0,DON'T EAT                                    EAT,186.3637,174.27025,55.54481
36,0,False,left,avoid,neg,fungus35_crop.jpg,1,4,1.0,35.0,1,189.53418,111.0,4.0,DON'T EAT                                    EAT,188.38194,174.27025,55.54481
37,0,True,left,approach,neg,insect35_crop.jpg,1,4,1.0,36.0,2,191.5441,111.0,4.0,DON'T EAT                                    EAT,190.40027,174.27025,55.54481
38,0,False,left,avoid,neg,fungus19_crop.jpg,1,4,1.0,37.0,1,193.42218,111.0,4.0,DON'T EAT                                    EAT,192.41867,174.27025,55.54481
39,0,False,left,avoid,neg,fungus32_crop.jpg,1,4,1.0,38.0,1,195.62627,111.0,4.0,DON'T EAT                                    EAT,194.437,174.27025,55.54481
40,0,False,left,avoid,neg,fungus8_crop.jpg,1,4,1.0,39.0,1,197.7563,111.0,4.0,DON'T EAT                                    EAT,196.4554,174.27025,55.54481
41,1,False,left,avoid,pos,meat22_crop.jpg,1,5,1.0,40.0,1,214.29977,111.0,5.0,DON'T EAT                                    EAT,213.06914,209.0491,55.54481
42,1,True,left,approach,pos,cake5_crop.jpg,1,5,1.0,41.0,2,216.19026,111.0,5.0,DON'T EAT                                    EAT,215.08755,209.0491,55.54481
43,1,False,left,avoid,pos,meat36_crop.jpg,1,5,1.0,42.0,1,218.60905,111.0,5.0,DON'T EAT                                    EAT,217.10596,209.0491,55.54481
44,1,False,left,avoid,pos,meat4_crop.jpg,1,5,1.0,43.0,2,220.57553,111.0,5.0,DON'T EAT                                    EAT,219.12415,209.0491,55.54481
45,1,False,left,avoid,pos,meat28_crop.jpg,1,5,1.0,44.0,1,222.41315,111.0,5.0,DON'T EAT                                    EAT,221.1426,209.0491,55.54481
46,1,False,left,avoid,pos,meat12_crop.jpg,1,5,1.0,45.0,1,224.31625,111.0,5.0,DON'T EAT                                    EAT,223.16054,209.0491,55.54481
47,1,False,left,avoid,pos,meat1_crop.jpg,1,5,1.0,46.0,1,226.50002,111.0,5.0,DON'T EAT                                    EAT,225.17917,209.0491,55.54481
48,1,False,left,avoid,pos,meat25_crop.jpg,1,5,1.0,47.0,1,228.62793,111.0,5.0,DON'T EAT                                    EAT,227.19762,209.0491,55.54481
49,1,False,left,avoid,pos,meat32_crop.jpg,1,5,1.0,48.0,1,230.30525,111.0,5.0,DON'T EAT                                    EAT,229.21591,209.0491,55.54481
50,1,True,left,approach,neg,insect36_crop.jpg,1,5,1.0,49.0,2,232.88985,111.0,5.0,DON'T EAT                                    EAT,231.23427,209.0491,55.54481
51,1,True,left,approach,pos,cake24_crop.jpg,1,6,1.0,50.0,2,252.18393,111.0,6.0,DON'T EAT                                    EAT,251.11755,247.0975,55.54481
52,1,False,left,avoid,neg,fungus5_crop.jpg,1,6,1.0,51.0,1,254.65929,111.0,6.0,DON'T EAT                                    EAT,253.1358,247.0975,55.54481
53,1,False,left,avoid,neg,fungus36_crop.jpg,1,6,1.0,52.0,1,256.72055,111.0,6.0,DON'T EAT                                    EAT,255.154,247.0975,55.54481
54,1,False,left,avoid,neg,fungus4_crop.jpg,1,6,1.0,53.0,1,258.40295,111.0,6.0,DON'T EAT                                    EAT,257.1724,247.0975,55.54481
55,1,False,left,avoid,neg,fungus21_crop.jpg,1,6,1.0,54.0,--,--,111.0,6.0,DON'T EAT                                    EAT,259.19046,247.0975,55.54481
56,1,False,left,avoid,neg,fungus34_crop.jpg,1,6,1.0,55.0,1,262.60507,111.0,6.0,DON'T EAT                                    EAT,261.20914,247.0975,55.54481
57,1,False,left,avoid,neg,fungus14_crop.jpg,1,6,1.0,56.0,1,264.2469,111.0,6.0,DON'T EAT                                    EAT,263.22763,247.0975,55.54481
58,1,True,left,approach,neg,insect1_crop.jpg,1,6,1.0,57.0,2,266.381,111.0,6.0,DON'T EAT                                    EAT,265.2459,247.0975,55.54481
59,1,False,left,avoid,neg,fungus1_crop.jpg,1,6,1.0,58.0,1,268.23898,111.0,6.0,DON'T EAT                                    EAT,267.26407,247.0975,55.54481
60,1,False,left,avoid,neg,fungus11_crop.jpg,1,6,1.0,59.0,1,270.46872,111.0,6.0,DON'T EAT                                    EAT,269.28253,247.0975,55.54481
61,3,True,right,avoid,pos,meat37_crop.jpg,1,7,1.0,60.0,1,288.8541,111.0,7.0,DON'T EAT                                    EAT,287.61426,283.59402,55.54481
62,3,False,right,approach,neg,insect33_crop.jpg,1,7,1.0,61.0,2,290.88455,111.0,7.0,DON'T EAT                                    EAT,289.6327,283.59402,55.54481
63,3,False,right,approach,neg,insect25_crop.jpg,1,7,1.0,62.0,2,292.6266,111.0,7.0,DON'T EAT                                    EAT,291.65106,283.59402,55.54481
64,3,False,right,approach,neg,insect30_crop.jpg,1,7,1.0,63.0,2,294.86557,111.0,7.0,DON'T EAT                                    EAT,293.66928,283.59402,55.54481
65,3,False,right,approach,neg,insect31_crop.jpg,1,7,1.0,64.0,2,297.13235,111.0,7.0,DON'T EAT                                    EAT,295.68747,283.59402,55.54481
66,3,False,right,approach,neg,insect17_crop.jpg,1,7,1.0,65.0,2,298.80685,111.0,7.0,DON'T EAT                                    EAT,297.7061,283.59402,55.54481
67,3,False,right,approach,neg,insect3_crop.jpg,1,7,1.0,66.0,2,301.00027,111.0,7.0,DON'T EAT                                    EAT,299.72443,283.59402,55.54481
68,3,True,right,avoid,neg,fungus2_crop.jpg,1,7,1.0,67.0,1,302.57797,111.0,7.0,DON'T EAT                                    EAT,301.7426,283.59402,55.54481
69,3,False,right,approach,neg,insect38_crop.jpg,1,7,1.0,68.0,2,304.53564,111.0,7.0,DON'T EAT                                    EAT,303.7608,283.59402,55.54481
70,3,False,right,approach,neg,insect24_crop.jpg,1,7,1.0,69.0,2,306.65994,111.0,7.0,DON'T EAT                                    EAT,305.7794,283.59402,55.54481
71,2,False,left,approach,pos,cake22_crop.jpg,1,8,1.0,70.0,2,325.6074,111.0,8.0,DON'T EAT                                    EAT,324.36148,320.3415,55.54481
72,2,False,left,approach,pos,cake26_crop.jpg,1,8,1.0,71.0,2,327.63208,111.0,8.0,DON'T EAT                                    EAT,326.37994,320.3415,55.54481
73,2,True,left,avoid,pos,meat21_crop.jpg,1,8,1.0,72.0,1,329.62534,111.0,8.0,DON'T EAT                                    EAT,328.3981,320.3415,55.54481
74,2,False,left,approach,pos,cake35_crop.jpg,1,8,1.0,73.0,2,331.44305,111.0,8.0,DON'T EAT                                    EAT,330.4166,320.3415,55.54481
75,2,False,left,approach,pos,cake21_crop.jpg,1,8,1.0,74.0,2,333.59393,111.0,8.0,DON'T EAT                                    EAT,332.43497,320.3415,55.54481
76,2,False,left,approach,pos,cake10_crop.jpg,1,8,1.0,75.0,2,335.62024,111.0,8.0,DON'T EAT                                    EAT,334.45312,320.3415,55.54481
77,2,False,left,approach,pos,cake30_crop.jpg,1,8,1.0,76.0,2,337.47916,111.0,8.0,DON'T EAT                                    EAT,336.47153,320.3415,55.54481
78,2,True,left,avoid,neg,fungus24_crop.jpg,1,8,1.0,77.0,1,339.60385,111.0,8.0,DON'T EAT                                    EAT,338.49,320.3415,55.54481
79,2,False,left,approach,pos,cake25_crop.jpg,1,8,1.0,78.0,2,341.38705,111.0,8.0,DON'T EAT                                    EAT,340.50812,320.3415,55.54481
80,2,False,left,approach,pos,cake1_crop.jpg,1,8,1.0,79.0,2,343.52615,111.0,8.0,DON'T EAT                                    EAT,342.5268,320.3415,55.54481
81,1,False,right,approach,pos,cake21_crop.jpg,2,9,1.0,80.0,2,434.94232,111.0,9.0,DON'T EAT                                    EAT,433.61856,429.5987,418.35168
82,1,True,right,avoid,pos,meat28_crop.jpg,2,9,1.0,81.0,1,436.69565,111.0,9.0,DON'T EAT                                    EAT,435.6373,429.5987,418.35168
83,1,False,right,approach,pos,cake15_crop.jpg,2,9,1.0,82.0,2,438.60043,111.0,9.0,DON'T EAT                                    EAT,437.6556,429.5987,418.35168
84,1,False,right,approach,pos,cake27_crop.jpg,2,9,1.0,83.0,2,440.55365,111.0,9.0,DON'T EAT                                    EAT,439.67398,429.5987,418.35168
85,1,False,right,approach,pos,cake13_crop.jpg,2,9,1.0,84.0,2,442.54022,111.0,9.0,DON'T EAT                                    EAT,441.6923,429.5987,418.35168
86,1,False,right,approach,pos,cake38_crop.jpg,2,9,1.0,85.0,2,444.63303,111.0,9.0,DON'T EAT                                    EAT,443.71033,429.5987,418.35168
87,1,False,right,approach,pos,cake18_crop.jpg,2,9,1.0,86.0,2,446.61917,111.0,9.0,DON'T EAT                                    EAT,445.7289,429.5987,418.35168
88,1,True,right,avoid,neg,fungus27_crop.jpg,2,9,1.0,87.0,1,448.74704,111.0,9.0,DON'T EAT                                    EAT,447.74747,429.5987,418.35168
89,1,False,right,approach,pos,cake6_crop.jpg,2,9,1.0,88.0,2,450.80066,111.0,9.0,DON'T EAT                                    EAT,449.76566,429.5987,418.35168
90,1,False,right,approach,pos,cake8_crop.jpg,2,9,1.0,89.0,2,452.77005,111.0,9.0,DON'T EAT                                    EAT,451.7841,429.5987,418.35168
91,2,False,left,avoid,pos,meat30_crop.jpg,2,10,1.0,90.0,1,471.20258,111.0,10.0,DON'T EAT                                    EAT,469.99908,465.9791,418.35168
92,2,False,left,avoid,pos,meat34_crop.jpg,2,10,1.0,91.0,1,473.852,111.0,10.0,DON'T EAT                                    EAT,472.01758,465.9791,418.35168
93,2,False,left,avoid,pos,meat6_crop.jpg,2,10,1.0,92.0,1,475.14926,111.0,10.0,DON'T EAT                                    EAT,474.0358,465.9791,418.35168
94,2,False,left,avoid,pos,meat14_crop.jpg,2,10,1.0,93.0,1,477.0392,111.0,10.0,DON'T EAT                                    EAT,476.05417,465.9791,418.35168
95,2,True,left,approach,neg,insect32_crop.jpg,2,10,1.0,94.0,2,479.04565,111.0,10.0,DON'T EAT                                    EAT,478.07248,465.9791,418.35168
96,2,False,left,avoid,pos,meat19_crop.jpg,2,10,1.0,95.0,1,481.1292,111.0,10.0,DON'T EAT                                    EAT,480.09058,465.9791,418.35168
97,2,False,left,avoid,pos,meat33_crop.jpg,2,10,1.0,96.0,1,483.12653,111.0,10.0,DON'T EAT                                    EAT,482.10916,465.9791,418.35168
98,2,False,left,avoid,pos,meat37_crop.jpg,2,10,1.0,97.0,1,485.19522,111.0,10.0,DON'T EAT                                    EAT,484.12695,465.9791,418.35168
99,2,False,left,avoid,pos,meat11_crop.jpg,2,10,1.0,98.0,1,487.969,111.0,10.0,DON'T EAT                                    EAT,486.14587,465.9791,418.35168
100,2,True,left,approach,pos,cake27_crop.jpg,2,10,1.0,99.0,2,489.21497,111.0,10.0,DON'T EAT                                    EAT,488.16428,465.9791,418.35168
101,3,False,right,approach,pos,cake4_crop.jpg,2,11,1.0,100.0,2,509.2442,111.0,11.0,DON'T EAT                                    EAT,508.01407,503.99384,418.35168
102,3,False,right,approach,pos,cake11_crop.jpg,2,11,1.0,101.0,2,511.00626,111.0,11.0,DON'T EAT                                    EAT,510.03232,503.99384,418.35168
103,3,False,right,approach,pos,cake22_crop.jpg,2,11,1.0,102.0,2,512.9199,111.0,11.0,DON'T EAT                                    EAT,512.05035,503.99384,418.35168
104,3,True,right,avoid,neg,fungus1_crop.jpg,2,11,1.0,103.0,1,515.16156,111.0,11.0,DON'T EAT                                    EAT,514.0691,503.99384,418.35168
105,3,False,right,approach,pos,cake40_crop.jpg,2,11,1.0,104.0,2,517.1363,111.0,11.0,DON'T EAT                                    EAT,516.0874,503.99384,418.35168
106,3,False,right,approach,pos,cake23_crop.jpg,2,11,1.0,105.0,2,519.1969,111.0,11.0,DON'T EAT                                    EAT,518.1057,503.99384,418.35168
107,3,True,right,avoid,pos,meat34_crop.jpg,2,11,1.0,106.0,1,521.4802,111.0,11.0,DON'T EAT                                    EAT,520.124,503.99384,418.35168
108,3,False,right,approach,pos,cake14_crop.jpg,2,11,1.0,107.0,2,523.03314,111.0,11.0,DON'T EAT                                    EAT,522.1424,503.99384,418.35168
109,3,False,right,approach,pos,cake25_crop.jpg,2,11,1.0,108.0,2,524.9873,111.0,11.0,DON'T EAT                                    EAT,524.1609,503.99384,418.35168
110,3,False,right,approach,pos,cake26_crop.jpg,2,11,1.0,109.0,2,527.10974,111.0,11.0,DON'T EAT                                    EAT,526.1789,503.99384,418.35168
111,3,False,left,avoid,neg,fungus17_crop.jpg,2,12,1.0,110.0,1,546.43256,111.0,12.0,DON'T EAT                                    EAT,545.2782,541.25806,418.35168
112,3,False,left,avoid,neg,fungus15_crop.jpg,2,12,1.0,111.0,1,548.42346,111.0,12.0,DON'T EAT                                    EAT,547.29663,541.25806,418.35168
113,3,False,left,avoid,neg,fungus18_crop.jpg,2,12,1.0,112.0,1,550.123,111.0,12.0,DON'T EAT                                    EAT,549.315,541.25806,418.35168
114,3,False,left,avoid,neg,fungus16_crop.jpg,2,12,1.0,113.0,1,552.042,111.0,12.0,DON'T EAT                                    EAT,551.3332,541.25806,418.35168
115,3,False,left,avoid,neg,fungus29_crop.jpg,2,12,1.0,114.0,1,554.5379,111.0,12.0,DON'T EAT                                    EAT,553.3517,541.25806,418.35168
116,3,False,left,avoid,neg,fungus38_crop.jpg,2,12,1.0,115.0,1,556.52216,111.0,12.0,DON'T EAT                                    EAT,555.3698,541.25806,418.35168
117,3,False,left,avoid,neg,fungus26_crop.jpg,2,12,1.0,116.0,1,558.2225,111.0,12.0,DON'T EAT                                    EAT,557.3885,541.25806,418.35168
118,3,False,left,avoid,neg,fungus2_crop.jpg,2,12,1.0,117.0,1,560.37177,111.0,12.0,DON'T EAT                                    EAT,559.40674,541.25806,418.35168
119,3,True,left,approach,pos,cake6_crop.jpg,2,12,1.0,118.0,2,562.463,111.0,12.0,DON'T EAT                                    EAT,561.42505,541.25806,418.35168
120,3,True,left,approach,neg,insect17_crop.jpg,2,12,1.0,119.0,2,564.3317,111.0,12.0,DON'T EAT                                    EAT,563.44336,541.25806,418.35168
121,0,True,left,avoid,pos,meat9_crop.jpg,2,13,1.0,120.0,1,582.05646,111.0,13.0,DON'T EAT                                    EAT,580.77454,576.75415,418.35168
122,0,False,left,approach,neg,insect19_crop.jpg,2,13,1.0,121.0,2,583.82385,111.0,13.0,DON'T EAT                                    EAT,582.7928,576.75415,418.35168
123,0,False,left,approach,neg,insect21_crop.jpg,2,13,1.0,122.0,2,585.5845,111.0,13.0,DON'T EAT                                    EAT,584.811,576.75415,418.35168
124,0,True,left,avoid,neg,fungus30_crop.jpg,2,13,1.0,123.0,1,588.0463,111.0,13.0,DON'T EAT                                    EAT,586.82947,576.75415,418.35168
125,0,False,left,approach,neg,insect11_crop.jpg,2,13,1.0,124.0,2,589.63257,111.0,13.0,DON'T EAT                                    EAT,588.8479,576.75415,418.35168
126,0,False,left,approach,neg,insect40_crop.jpg,2,13,1.0,125.0,2,591.7121,111.0,13.0,DON'T EAT                                    EAT,590.86615,576.75415,418.35168
127,0,False,left,approach,neg,insect37_crop.jpg,2,13,1.0,126.0,2,593.92773,111.0,13.0,DON'T EAT                                    EAT,592.88446,576.75415,418.35168
128,0,False,left,approach,neg,insect2_crop.jpg,2,13,1.0,127.0,2,595.8807,111.0,13.0,DON'T EAT                                    EAT,594.9028,576.75415,418.35168
129,0,False,left,approach,neg,insect34_crop.jpg,2,13,1.0,128.0,2,597.6297,111.0,13.0,DON'T EAT                                    EAT,596.9211,576.75415,418.35168
130,0,False,left,approach,neg,insect29_crop.jpg,2,13,1.0,129.0,2,599.9041,111.0,13.0,DON'T EAT                                    EAT,598.93945,576.75415,418.35168
131,2,False,right,avoid,neg,fungus23_crop.jpg,2,14,1.0,130.0,1,618.5535,111.0,14.0,DON'T EAT                                    EAT,617.50494,613.48486,418.35168
132,2,False,right,avoid,neg,fungus11_crop.jpg,2,14,1.0,131.0,1,621.01904,111.0,14.0,DON'T EAT                                    EAT,619.52325,613.48486,418.35168
133,2,False,right,avoid,neg,fungus24_crop.jpg,2,14,1.0,132.0,1,622.70496,111.0,14.0,DON'T EAT                                    EAT,621.5415,613.48486,418.35168
134,2,False,right,avoid,neg,fungus34_crop.jpg,2,14,1.0,133.0,1,624.5331,111.0,14.0,DON'T EAT                                    EAT,623.56,613.48486,418.35168
135,2,True,right,approach,pos,cake29_crop.jpg,2,14,1.0,134.0,2,626.7334,111.0,14.0,DON'T EAT                                    EAT,625.57806,613.48486,418.35168
136,2,False,right,avoid,neg,fungus22_crop.jpg,2,14,1.0,135.0,1,628.4747,111.0,14.0,DON'T EAT                                    EAT,627.5966,613.48486,418.35168
137,2,True,right,approach,neg,insect32_crop.jpg,2,14,1.0,136.0,2,630.5604,111.0,14.0,DON'T EAT                                    EAT,629.615,613.48486,418.35168
138,2,False,right,avoid,neg,fungus3_crop.jpg,2,14,1.0,137.0,1,632.4817,111.0,14.0,DON'T EAT                                    EAT,631.6333,613.48486,418.35168
139,2,False,right,avoid,neg,fungus21_crop.jpg,2,14,1.0,138.0,1,634.7203,111.0,14.0,DON'T EAT                                    EAT,633.6517,613.48486,418.35168
140,2,False,right,avoid,neg,fungus15_crop.jpg,2,14,1.0,139.0,1,636.53796,111.0,14.0,DON'T EAT                                    EAT,635.6698,613.48486,418.35168
141,3,True,left,avoid,neg,fungus12_crop.jpg,2,15,1.0,140.0,1,656.2751,111.0,15.0,DON'T EAT                                    EAT,655.2029,651.1828,418.35168
142,3,False,left,approach,neg,insect24_crop.jpg,2,15,1.0,141.0,2,658.4829,111.0,15.0,DON'T EAT                                    EAT,657.2212,651.1828,418.35168
143,3,False,left,approach,neg,insect20_crop.jpg,2,15,1.0,142.0,2,660.4649,111.0,15.0,DON'T EAT                                    EAT,659.23956,651.1828,418.35168
144,3,False,left,approach,neg,insect3_crop.jpg,2,15,1.0,143.0,2,662.327,111.0,15.0,DON'T EAT                                    EAT,661.25793,651.1828,418.35168
145,3,False,left,approach,neg,insect28_crop.jpg,2,15,1.0,144.0,2,664.6003,111.0,15.0,DON'T EAT                                    EAT,663.27637,651.1828,418.35168
146,3,False,left,approach,neg,insect30_crop.jpg,2,15,1.0,145.0,2,666.93256,111.0,15.0,DON'T EAT                                    EAT,665.29407,651.1828,418.35168
147,3,False,left,approach,neg,insect10_crop.jpg,2,15,1.0,146.0,2,668.3777,111.0,15.0,DON'T EAT                                    EAT,667.313,651.1828,418.35168
148,3,False,left,approach,neg,insect23_crop.jpg,2,15,1.0,147.0,2,670.30493,111.0,15.0,DON'T EAT                                    EAT,669.3312,651.1828,418.35168
149,3,True,left,avoid,pos,meat35_crop.jpg,2,15,1.0,148.0,1,672.419,111.0,15.0,DON'T EAT                                    EAT,671.3496,651.1828,418.35168
150,3,False,left,approach,neg,insect31_crop.jpg,2,15,1.0,149.0,2,674.23694,111.0,15.0,DON'T EAT                                    EAT,673.3682,651.1828,418.35168
151,1,False,left,approach,pos,cake38_crop.jpg,2,16,1.0,150.0,2,693.14087,111.0,16.0,DON'T EAT                                    EAT,692.2503,688.2303,418.35168
152,1,False,left,approach,pos,cake4_crop.jpg,2,16,1.0,151.0,2,695.1563,111.0,16.0,DON'T EAT                                    EAT,694.26874,688.2303,418.35168
153,1,False,left,approach,pos,cake32_crop.jpg,2,16,1.0,152.0,2,697.1438,111.0,16.0,DON'T EAT                                    EAT,696.2869,688.2303,418.35168
154,1,False,left,approach,pos,cake28_crop.jpg,2,16,1.0,153.0,2,699.09985,111.0,16.0,DON'T EAT                                    EAT,698.30536,688.2303,418.35168
155,1,False,left,approach,pos,cake34_crop.jpg,2,16,1.0,154.0,2,701.553,111.0,16.0,DON'T EAT                                    EAT,700.3236,688.2303,418.35168
156,1,True,left,avoid,neg,fungus22_crop.jpg,2,16,1.0,155.0,1,703.3712,111.0,16.0,DON'T EAT                                    EAT,702.34204,688.2303,418.35168
157,1,True,left,avoid,pos,meat2_crop.jpg,2,16,1.0,156.0,1,705.335,111.0,16.0,DON'T EAT                                    EAT,704.36035,688.2303,418.35168
158,1,False,left,approach,pos,cake29_crop.jpg,2,16,1.0,157.0,2,707.4345,111.0,16.0,DON'T EAT                                    EAT,706.3787,688.2303,418.35168
159,1,False,left,approach,pos,cake18_crop.jpg,2,16,1.0,158.0,2,709.20685,111.0,16.0,DON'T EAT                                    EAT,708.3971,688.2303,418.35168
160,1,False,left,approach,pos,cake23_crop.jpg,2,16,1.0,159.0,2,711.24084,111.0,16.0,DON'T EAT                                    EAT,710.4154,688.2303,418.35168
161,0,False,right,avoid,neg,fungus29_crop.jpg,3,17,1.0,160.0,1,795.514,111.0,17.0,DON'T EAT                                    EAT,793.68445,789.6646,779.1037
162,0,False,right,avoid,neg,fungus30_crop.jpg,3,17,1.0,161.0,1,796.8703,111.0,17.0,DON'T EAT                                    EAT,795.7028,789.6646,779.1037
163,0,True,right,approach,pos,cake16_crop.jpg,3,17,1.0,162.0,2,798.7912,111.0,17.0,DON'T EAT                                    EAT,797.72107,789.6646,779.1037
164,0,False,right,avoid,neg,fungus5_crop.jpg,3,17,1.0,163.0,1,800.6611,111.0,17.0,DON'T EAT                                    EAT,799.7395,789.6646,779.1037
165,0,False,right,avoid,neg,fungus4_crop.jpg,3,17,1.0,164.0,1,802.4895,111.0,17.0,DON'T EAT                                    EAT,801.75793,789.6646,779.1037
166,0,True,right,approach,neg,insect18_crop.jpg,3,17,1.0,165.0,2,804.8132,111.0,17.0,DON'T EAT                                    EAT,803.7763,789.6646,779.1037
167,0,False,right,avoid,neg,fungus19_crop.jpg,3,17,1.0,166.0,1,806.5012,111.0,17.0,DON'T EAT                                    EAT,805.79456,789.6646,779.1037
168,0,False,right,avoid,neg,fungus39_crop.jpg,3,17,1.0,167.0,1,808.8808,111.0,17.0,DON'T EAT                                    EAT,807.813,789.6646,779.1037
169,0,False,right,avoid,neg,fungus25_crop.jpg,3,17,1.0,168.0,1,810.8608,111.0,17.0,DON'T EAT                                    EAT,809.8312,789.6646,779.1037
170,0,False,right,avoid,neg,fungus36_crop.jpg,3,17,1.0,169.0,1,812.5466,111.0,17.0,DON'T EAT                                    EAT,811.8493,789.6646,779.1037
171,0,False,right,approach,neg,insect28_crop.jpg,3,18,1.0,170.0,2,829.14136,111.0,18.0,DON'T EAT                                    EAT,828.14655,824.1262,779.1037
172,0,False,right,approach,neg,insect20_crop.jpg,3,18,1.0,171.0,2,830.8856,111.0,18.0,DON'T EAT                                    EAT,830.1648,824.1262,779.1037
173,0,True,right,avoid,pos,meat15_crop.jpg,3,18,1.0,172.0,1,833.3052,111.0,18.0,DON'T EAT                                    EAT,832.1831,824.1262,779.1037
174,0,False,right,approach,neg,insect9_crop.jpg,3,18,1.0,173.0,2,834.94183,111.0,18.0,DON'T EAT                                    EAT,834.20154,824.1262,779.1037
175,0,False,right,approach,neg,insect37_crop.jpg,3,18,1.0,174.0,2,837.17114,111.0,18.0,DON'T EAT                                    EAT,836.21954,824.1262,779.1037
176,0,False,right,approach,neg,insect8_crop.jpg,3,18,1.0,175.0,2,839.0211,111.0,18.0,DON'T EAT                                    EAT,838.2381,824.1262,779.1037
177,0,False,right,approach,neg,insect16_crop.jpg,3,18,1.0,176.0,2,840.9653,111.0,18.0,DON'T EAT                                    EAT,840.2566,824.1262,779.1037
178,0,True,right,avoid,neg,fungus6_crop.jpg,3,18,1.0,177.0,1,843.2269,111.0,18.0,DON'T EAT                                    EAT,842.2748,824.1262,779.1037
179,0,False,right,approach,neg,insect23_crop.jpg,3,18,1.0,178.0,2,845.2443,111.0,18.0,DON'T EAT                                    EAT,844.2932,824.1262,779.1037
180,0,False,right,approach,neg,insect14_crop.jpg,3,18,1.0,179.0,2,847.6671,111.0,18.0,DON'T EAT                                    EAT,846.31146,824.1262,779.1037
181,2,False,right,approach,pos,cake36_crop.jpg,3,19,1.0,180.0,2,864.17163,111.0,19.0,DON'T EAT                                    EAT,862.8253,858.80524,779.1037
182,2,False,right,approach,pos,cake17_crop.jpg,3,19,1.0,181.0,2,865.69946,111.0,19.0,DON'T EAT                                    EAT,864.84357,858.80524,779.1037
183,2,False,right,approach,pos,cake35_crop.jpg,3,19,1.0,182.0,2,867.6863,111.0,19.0,DON'T EAT                                    EAT,866.8619,858.80524,779.1037
184,2,False,right,approach,pos,cake5_crop.jpg,3,19,1.0,183.0,2,869.5991,111.0,19.0,DON'T EAT                                    EAT,868.8803,858.80524,779.1037
185,2,False,right,approach,pos,cake28_crop.jpg,3,19,1.0,184.0,2,871.5735,111.0,19.0,DON'T EAT                                    EAT,870.8987,858.80524,779.1037
186,2,True,right,avoid,neg,fungus13_crop.jpg,3,19,1.0,185.0,1,873.91656,111.0,19.0,DON'T EAT                                    EAT,872.91693,858.80524,779.1037
187,2,False,right,approach,pos,cake39_crop.jpg,3,19,1.0,186.0,2,875.9453,111.0,19.0,DON'T EAT                                    EAT,874.93536,858.80524,779.1037
188,2,False,right,approach,pos,cake10_crop.jpg,3,19,1.0,187.0,2,877.9013,111.0,19.0,DON'T EAT                                    EAT,876.9537,858.80524,779.1037
189,2,False,right,approach,pos,cake24_crop.jpg,3,19,1.0,188.0,2,879.7549,111.0,19.0,DON'T EAT                                    EAT,878.97174,858.80524,779.1037
190,2,True,right,avoid,pos,meat40_crop.jpg,3,19,1.0,189.0,1,881.90106,111.0,19.0,DON'T EAT                                    EAT,880.9903,858.80524,779.1037
191,0,False,left,avoid,pos,meat8_crop.jpg,3,20,1.0,190.0,1,900.2816,111.0,20.0,DON'T EAT                                    EAT,899.339,895.3189,779.1037
192,0,False,left,avoid,pos,meat24_crop.jpg,3,20,1.0,191.0,1,902.22736,111.0,20.0,DON'T EAT                                    EAT,901.3573,895.3189,779.1037
193,0,False,left,avoid,pos,meat10_crop.jpg,3,20,1.0,192.0,1,904.24506,111.0,20.0,DON'T EAT                                    EAT,903.3756,895.3189,779.1037
194,0,False,left,avoid,pos,meat23_crop.jpg,3,20,1.0,193.0,1,906.5114,111.0,20.0,DON'T EAT                                    EAT,905.39374,895.3189,779.1037
195,0,False,left,avoid,pos,meat17_crop.jpg,3,20,1.0,194.0,1,908.3505,111.0,20.0,DON'T EAT                                    EAT,907.41174,895.3189,779.1037
196,0,True,left,approach,neg,insect33_crop.jpg,3,20,1.0,195.0,2,910.55023,111.0,20.0,DON'T EAT                                    EAT,909.4303,895.3189,779.1037
197,0,False,left,avoid,pos,meat40_crop.jpg,3,20,1.0,196.0,1,912.25055,111.0,20.0,DON'T EAT                                    EAT,911.4489,895.3189,779.1037
198,0,False,left,avoid,pos,meat38_crop.jpg,3,20,1.0,197.0,1,914.3171,111.0,20.0,DON'T EAT                                    EAT,913.46747,895.3189,779.1037
199,0,True,left,approach,pos,cake7_crop.jpg,3,20,1.0,198.0,2,916.6622,111.0,20.0,DON'T EAT                                    EAT,915.4858,895.3189,779.1037
200,0,False,left,avoid,pos,meat3_crop.jpg,3,20,1.0,199.0,1,919.2735,111.0,20.0,DON'T EAT                                    EAT,917.50397,895.3189,779.1037
201,3,False,right,avoid,neg,fungus16_crop.jpg,3,21,1.0,200.0,1,936.58026,111.0,21.0,DON'T EAT                                    EAT,935.469,931.449,779.1037
202,3,False,right,avoid,neg,fungus8_crop.jpg,3,21,1.0,201.0,1,938.3123,111.0,21.0,DON'T EAT                                    EAT,937.4872,931.449,779.1037
203,3,True,right,approach,pos,cake3_crop.jpg,3,21,1.0,202.0,2,940.5439,111.0,21.0,DON'T EAT                                    EAT,939.50555,931.449,779.1037
204,3,False,right,avoid,neg,fungus33_crop.jpg,3,21,1.0,203.0,1,942.41486,111.0,21.0,DON'T EAT                                    EAT,941.52386,931.449,779.1037
205,3,True,right,approach,neg,insect11_crop.jpg,3,21,1.0,204.0,2,944.53076,111.0,21.0,DON'T EAT                                    EAT,943.54224,931.449,779.1037
206,3,False,right,avoid,neg,fungus28_crop.jpg,3,21,1.0,205.0,1,946.4476,111.0,21.0,DON'T EAT                                    EAT,945.5605,931.449,779.1037
207,3,False,right,avoid,neg,fungus20_crop.jpg,3,21,1.0,206.0,1,948.52313,111.0,21.0,DON'T EAT                                    EAT,947.5789,931.449,779.1037
208,3,False,right,avoid,neg,fungus31_crop.jpg,3,21,1.0,207.0,1,950.5492,111.0,21.0,DON'T EAT                                    EAT,949.5972,931.449,779.1037
209,3,False,right,avoid,neg,fungus17_crop.jpg,3,21,1.0,208.0,1,952.6933,111.0,21.0,DON'T EAT                                    EAT,951.61566,931.449,779.1037
210,3,False,right,avoid,neg,fungus38_crop.jpg,3,21,1.0,209.0,1,954.5692,111.0,21.0,DON'T EAT                                    EAT,953.634,931.449,779.1037
211,2,False,left,approach,neg,insect5_crop.jpg,3,22,1.0,210.0,2,972.63025,111.0,22.0,DON'T EAT                                    EAT,971.6489,967.6291,779.1037
212,2,False,left,approach,neg,insect16_crop.jpg,3,22,1.0,211.0,2,974.60095,111.0,22.0,DON'T EAT                                    EAT,973.6674,967.6291,779.1037
213,2,False,left,approach,neg,insect22_crop.jpg,3,22,1.0,212.0,2,976.4711,111.0,22.0,DON'T EAT                                    EAT,975.6856,967.6291,779.1037
214,2,True,left,avoid,pos,meat31_crop.jpg,3,22,1.0,213.0,1,978.63434,111.0,22.0,DON'T EAT                                    EAT,977.70386,967.6291,779.1037
215,2,True,left,avoid,neg,fungus37_crop.jpg,3,22,1.0,214.0,1,980.64026,111.0,22.0,DON'T EAT                                    EAT,979.7222,967.6291,779.1037
216,2,False,left,approach,neg,insect8_crop.jpg,3,22,1.0,215.0,2,982.74744,111.0,22.0,DON'T EAT                                    EAT,981.74036,967.6291,779.1037
217,2,False,left,approach,neg,insect15_crop.jpg,3,22,1.0,216.0,2,984.9108,111.0,22.0,DON'T EAT                                    EAT,983.7591,967.6291,779.1037
218,2,False,left,approach,neg,insect39_crop.jpg,3,22,1.0,217.0,2,986.6235,111.0,22.0,DON'T EAT                                    EAT,985.7773,967.6291,779.1037
219,2,False,left,approach,neg,insect13_crop.jpg,3,22,1.0,218.0,2,988.7355,111.0,22.0,DON'T EAT                                    EAT,987.7957,967.6291,779.1037
220,2,False,left,approach,neg,insect12_crop.jpg,3,22,1.0,219.0,2,990.4409,111.0,22.0,DON'T EAT                                    EAT,989.814,967.6291,779.1037
221,1,False,right,avoid,pos,meat30_crop.jpg,3,23,1.0,220.0,1,1010.0807,111.0,23.0,DON'T EAT                                    EAT,1008.7798,1004.7597,779.1037
222,1,False,right,avoid,pos,meat12_crop.jpg,3,23,1.0,221.0,1,1011.95953,111.0,23.0,DON'T EAT                                    EAT,1010.7978,1004.7597,779.1037
223,1,True,right,approach,pos,cake33_crop.jpg,3,23,1.0,222.0,2,1013.718,111.0,23.0,DON'T EAT                                    EAT,1012.8164,1004.7597,779.1037
224,1,False,right,avoid,pos,meat20_crop.jpg,3,23,1.0,223.0,1,1015.64185,111.0,23.0,DON'T EAT                                    EAT,1014.8348,1004.7597,779.1037
225,1,False,right,avoid,pos,meat16_crop.jpg,3,23,1.0,224.0,1,1017.97473,111.0,23.0,DON'T EAT                                    EAT,1016.85284,1004.7597,779.1037
226,1,True,right,approach,neg,insect7_crop.jpg,3,23,1.0,225.0,2,1019.637,111.0,23.0,DON'T EAT                                    EAT,1018.8714,1004.7597,779.1037
227,1,False,right,avoid,pos,meat6_crop.jpg,3,23,1.0,226.0,1,1021.94916,111.0,23.0,DON'T EAT                                    EAT,1020.8898,1004.7597,779.1037
228,1,False,right,avoid,pos,meat17_crop.jpg,3,23,1.0,227.0,1,1023.8474,111.0,23.0,DON'T EAT                                    EAT,1022.90796,1004.7597,779.1037
229,1,False,right,avoid,pos,meat31_crop.jpg,3,23,1.0,228.0,1,1025.9005,111.0,23.0,DON'T EAT                                    EAT,1024.9265,1004.7597,779.1037
230,1,False,right,avoid,pos,meat5_crop.jpg,3,23,1.0,229.0,1,1027.7611,111.0,23.0,DON'T EAT                                    EAT,1026.9448,1004.7597,779.1037
231,3,False,right,avoid,pos,meat27_crop.jpg,3,24,1.0,230.0,1,1045.5725,111.0,24.0,DON'T EAT                                    EAT,1044.6929,1040.6729,779.1037
232,3,False,right,avoid,pos,meat38_crop.jpg,3,24,1.0,231.0,1,1047.5255,111.0,24.0,DON'T EAT                                    EAT,1046.7112,1040.6729,779.1037
233,3,False,right,avoid,pos,meat11_crop.jpg,3,24,1.0,232.0,1,1049.4902,111.0,24.0,DON'T EAT                                    EAT,1048.7295,1040.6729,779.1037
234,3,True,right,approach,neg,insect1_crop.jpg,3,24,1.0,233.0,2,1052.1455,111.0,24.0,DON'T EAT                                    EAT,1050.7479,1040.6729,779.1037
235,3,False,right,avoid,pos,meat4_crop.jpg,3,24,1.0,234.0,2,1054.1293,111.0,24.0,DON'T EAT                                    EAT,1052.7662,1040.6729,779.1037
236,3,True,right,approach,pos,cake7_crop.jpg,3,24,1.0,235.0,2,1055.894,111.0,24.0,DON'T EAT                                    EAT,1054.7847,1040.6729,779.1037
237,3,False,right,avoid,pos,meat36_crop.jpg,3,24,1.0,236.0,1,1057.7556,111.0,24.0,DON'T EAT                                    EAT,1056.8027,1040.6729,779.1037
238,3,False,right,avoid,pos,meat10_crop.jpg,3,24,1.0,237.0,1,1059.88,111.0,24.0,DON'T EAT                                    EAT,1058.8212,1040.6729,779.1037
239,3,False,right,avoid,pos,meat23_crop.jpg,3,24,1.0,238.0,1,1061.8346,111.0,24.0,DON'T EAT                                    EAT,1060.8397,1040.6729,779.1037
240,3,False,right,avoid,pos,meat24_crop.jpg,3,24,1.0,239.0,1,1063.6942,111.0,24.0,DON'T EAT                                    EAT,1062.8582,1040.6729,779.1037
241,3,True,left,avoid,neg,fungus25_crop.jpg,4,25,1.0,240.0,1,1159.3558,111.0,25.0,DON'T EAT                                    EAT,1158.1371,1154.1171,1142.7968
242,3,False,left,approach,pos,cake15_crop.jpg,4,25,1.0,241.0,2,1161.3099,111.0,25.0,DON'T EAT                                    EAT,1160.1554,1154.1171,1142.7968
243,3,False,left,approach,pos,cake33_crop.jpg,4,25,1.0,242.0,2,1163.1361,111.0,25.0,DON'T EAT                                    EAT,1162.1738,1154.1171,1142.7968
244,3,False,left,approach,pos,cake9_crop.jpg,4,25,1.0,243.0,2,1165.0176,111.0,25.0,DON'T EAT                                    EAT,1164.1915,1154.1171,1142.7968
245,3,False,left,approach,pos,cake11_crop.jpg,4,25,1.0,244.0,2,1167.0702,111.0,25.0,DON'T EAT                                    EAT,1166.2103,1154.1171,1142.7968
246,3,False,left,approach,pos,cake14_crop.jpg,4,25,1.0,245.0,2,1169.0006,111.0,25.0,DON'T EAT                                    EAT,1168.2289,1154.1171,1142.7968
247,3,False,left,approach,pos,cake2_crop.jpg,4,25,1.0,246.0,2,1171.0421,111.0,25.0,DON'T EAT                                    EAT,1170.2471,1154.1171,1142.7968
248,3,False,left,approach,pos,cake19_crop.jpg,4,25,1.0,247.0,2,1173.269,111.0,25.0,DON'T EAT                                    EAT,1172.2655,1154.1171,1142.7968
249,3,True,left,avoid,pos,meat26_crop.jpg,4,25,1.0,248.0,1,1175.3108,111.0,25.0,DON'T EAT                                    EAT,1174.2837,1154.1171,1142.7968
250,3,False,left,approach,pos,cake12_crop.jpg,4,25,1.0,249.0,2,1177.413,111.0,25.0,DON'T EAT                                    EAT,1176.3021,1154.1171,1142.7968
251,0,False,left,approach,pos,cake16_crop.jpg,4,26,1.0,250.0,2,1196.1956,111.0,26.0,DON'T EAT                                    EAT,1195.2512,1191.231,1142.7968
252,0,False,left,approach,pos,cake17_crop.jpg,4,26,1.0,251.0,2,1197.9474,111.0,26.0,DON'T EAT                                    EAT,1197.2694,1191.231,1142.7968
253,0,True,left,avoid,neg,fungus23_crop.jpg,4,26,1.0,252.0,1,1200.1345,111.0,26.0,DON'T EAT                                    EAT,1199.288,1191.231,1142.7968
254,0,False,left,approach,pos,cake36_crop.jpg,4,26,1.0,253.0,2,1202.1079,111.0,26.0,DON'T EAT                                    EAT,1201.3063,1191.231,1142.7968
255,0,True,left,avoid,pos,meat5_crop.jpg,4,26,1.0,254.0,1,1204.2058,111.0,26.0,DON'T EAT                                    EAT,1203.3246,1191.231,1142.7968
256,0,False,left,approach,pos,cake20_crop.jpg,4,26,1.0,255.0,2,1206.6735,111.0,26.0,DON'T EAT                                    EAT,1205.3429,1191.231,1142.7968
257,0,False,left,approach,pos,cake40_crop.jpg,4,26,1.0,256.0,2,1208.1024,111.0,26.0,DON'T EAT                                    EAT,1207.3612,1191.231,1142.7968
258,0,False,left,approach,pos,cake3_crop.jpg,4,26,1.0,257.0,2,1210.041,111.0,26.0,DON'T EAT                                    EAT,1209.3795,1191.231,1142.7968
259,0,False,left,approach,pos,cake8_crop.jpg,4,26,1.0,258.0,2,1212.035,111.0,26.0,DON'T EAT                                    EAT,1211.3981,1191.231,1142.7968
260,0,False,left,approach,pos,cake39_crop.jpg,4,26,1.0,259.0,2,1214.1477,111.0,26.0,DON'T EAT                                    EAT,1213.4164,1191.231,1142.7968
261,3,False,left,avoid,pos,meat13_crop.jpg,4,27,1.0,260.0,1,1231.6311,111.0,27.0,DON'T EAT                                    EAT,1230.6139,1226.5939,1142.7968
262,3,False,left,avoid,pos,meat20_crop.jpg,4,27,1.0,261.0,1,1233.4874,111.0,27.0,DON'T EAT                                    EAT,1232.6322,1226.5939,1142.7968
263,3,False,left,avoid,pos,meat18_crop.jpg,4,27,1.0,262.0,1,1235.4028,111.0,27.0,DON'T EAT                                    EAT,1234.6501,1226.5939,1142.7968
264,3,False,left,avoid,pos,meat15_crop.jpg,4,27,1.0,263.0,1,1237.8738,111.0,27.0,DON'T EAT                                    EAT,1236.669,1226.5939,1142.7968
265,3,False,left,avoid,pos,meat16_crop.jpg,4,27,1.0,264.0,1,1239.4214,111.0,27.0,DON'T EAT                                    EAT,1238.6873,1226.5939,1142.7968
266,3,True,left,approach,pos,cake31_crop.jpg,4,27,1.0,265.0,2,1242.0192,111.0,27.0,DON'T EAT                                    EAT,1240.7057,1226.5939,1142.7968
267,3,False,left,avoid,pos,meat39_crop.jpg,4,27,1.0,266.0,1,1243.7622,111.0,27.0,DON'T EAT                                    EAT,1242.724,1226.5939,1142.7968
268,3,True,left,approach,neg,insect7_crop.jpg,4,27,1.0,267.0,2,1245.5642,111.0,27.0,DON'T EAT                                    EAT,1244.7423,1226.5939,1142.7968
269,3,False,left,avoid,pos,meat29_crop.jpg,4,27,1.0,268.0,1,1247.7651,111.0,27.0,DON'T EAT                                    EAT,1246.7604,1226.5939,1142.7968
270,3,False,left,avoid,pos,meat7_crop.jpg,4,27,1.0,269.0,1,1249.6974,111.0,27.0,DON'T EAT                                    EAT,1248.779,1226.5939,1142.7968
271,0,False,right,approach,pos,cake30_crop.jpg,4,28,1.0,270.0,2,1268.6125,111.0,28.0,DON'T EAT                                    EAT,1267.7448,1263.7247,1142.7968
272,0,True,right,avoid,pos,meat3_crop.jpg,4,28,1.0,271.0,1,1270.6423,111.0,28.0,DON'T EAT                                    EAT,1269.7631,1263.7247,1142.7968
273,0,False,right,approach,pos,cake34_crop.jpg,4,28,1.0,272.0,2,1272.8613,111.0,28.0,DON'T EAT                                    EAT,1271.7815,1263.7247,1142.7968
274,0,False,right,approach,pos,cake19_crop.jpg,4,28,1.0,273.0,2,1274.9031,111.0,28.0,DON'T EAT                                    EAT,1273.7997,1263.7247,1142.7968
275,0,False,right,approach,pos,cake9_crop.jpg,4,28,1.0,274.0,2,1276.7173,111.0,28.0,DON'T EAT                                    EAT,1275.8181,1263.7247,1142.7968
276,0,True,right,avoid,neg,fungus10_crop.jpg,4,28,1.0,275.0,1,1278.6942,111.0,28.0,DON'T EAT                                    EAT,1277.8362,1263.7247,1142.7968
277,0,False,right,approach,pos,cake31_crop.jpg,4,28,1.0,276.0,2,1281.0493,111.0,28.0,DON'T EAT                                    EAT,1279.8547,1263.7247,1142.7968
278,0,False,right,approach,pos,cake20_crop.jpg,4,28,1.0,277.0,2,1282.7307,111.0,28.0,DON'T EAT                                    EAT,1281.873,1263.7247,1142.7968
279,0,False,right,approach,pos,cake12_crop.jpg,4,28,1.0,278.0,2,1284.6974,111.0,28.0,DON'T EAT                                    EAT,1283.8911,1263.7247,1142.7968
280,0,False,right,approach,pos,cake2_crop.jpg,4,28,1.0,279.0,2,1286.6492,111.0,28.0,DON'T EAT                                    EAT,1285.9099,1263.7247,1142.7968
281,2,False,right,avoid,pos,meat9_crop.jpg,4,29,1.0,280.0,1,1303.913,111.0,29.0,DON'T EAT                                    EAT,1302.8572,1298.8369,1142.7968
282,2,False,right,avoid,pos,meat33_crop.jpg,4,29,1.0,281.0,1,1305.7441,111.0,29.0,DON'T EAT                                    EAT,1304.8755,1298.8369,1142.7968
283,2,False,right,avoid,pos,meat39_crop.jpg,4,29,1.0,282.0,1,1307.9226,111.0,29.0,DON'T EAT                                    EAT,1306.8938,1298.8369,1142.7968
284,2,False,right,avoid,pos,meat14_crop.jpg,4,29,1.0,283.0,1,1309.8016,111.0,29.0,DON'T EAT                                    EAT,1308.9122,1298.8369,1142.7968
285,2,False,right,avoid,pos,meat35_crop.jpg,4,29,1.0,284.0,1,1311.7703,111.0,29.0,DON'T EAT                                    EAT,1310.9304,1298.8369,1142.7968
286,2,False,right,avoid,pos,meat8_crop.jpg,4,29,1.0,285.0,1,1313.8031,111.0,29.0,DON'T EAT                                    EAT,1312.9487,1298.8369,1142.7968
287,2,False,right,avoid,pos,meat22_crop.jpg,4,29,1.0,286.0,1,1315.8138,111.0,29.0,DON'T EAT                                    EAT,1314.9675,1298.8369,1142.7968
288,2,True,right,approach,pos,cake37_crop.jpg,4,29,1.0,287.0,2,1317.8326,111.0,29.0,DON'T EAT                                    EAT,1316.9857,1298.8369,1142.7968
289,2,False,right,avoid,pos,meat13_crop.jpg,4,29,1.0,288.0,1,1319.8502,111.0,29.0,DON'T EAT                                    EAT,1319.0039,1298.8369,1142.7968
290,2,True,right,approach,neg,insect36_crop.jpg,4,29,1.0,289.0,2,1322.5236,111.0,29.0,DON'T EAT                                    EAT,1321.0222,1298.8369,1142.7968
291,1,True,left,avoid,neg,fungus33_crop.jpg,4,30,1.0,290.0,1,1341.315,111.0,30.0,DON'T EAT                                    EAT,1340.4381,1336.4181,1142.7968
292,1,False,left,approach,neg,insect27_crop.jpg,4,30,1.0,291.0,2,1343.4539,111.0,30.0,DON'T EAT                                    EAT,1342.4568,1336.4181,1142.7968
293,1,False,left,approach,neg,insect25_crop.jpg,4,30,1.0,292.0,2,1345.288,111.0,30.0,DON'T EAT                                    EAT,1344.4751,1336.4181,1142.7968
294,1,True,left,avoid,pos,meat27_crop.jpg,4,30,1.0,293.0,1,1347.4357,111.0,30.0,DON'T EAT                                    EAT,1346.4933,1336.4181,1142.7968
295,1,False,left,approach,neg,insect4_crop.jpg,4,30,1.0,294.0,2,1349.3027,111.0,30.0,DON'T EAT                                    EAT,1348.5117,1336.4181,1142.7968
296,1,False,left,approach,neg,insect26_crop.jpg,4,30,1.0,295.0,2,1351.3018,111.0,30.0,DON'T EAT                                    EAT,1350.5302,1336.4181,1142.7968
297,1,False,left,approach,neg,insect6_crop.jpg,4,30,1.0,296.0,2,1353.2562,111.0,30.0,DON'T EAT                                    EAT,1352.5482,1336.4181,1142.7968
298,1,False,left,approach,neg,insect14_crop.jpg,4,30,1.0,297.0,2,1355.2898,111.0,30.0,DON'T EAT                                    EAT,1354.5669,1336.4181,1142.7968
299,1,False,left,approach,neg,insect9_crop.jpg,4,30,1.0,298.0,2,1357.3575,111.0,30.0,DON'T EAT                                    EAT,1356.5852,1336.4181,1142.7968
300,1,False,left,approach,neg,insect18_crop.jpg,4,30,1.0,299.0,2,1359.3142,111.0,30.0,DON'T EAT                                    EAT,1358.6035,1336.4181,1142.7968
301,2,True,left,approach,neg,insect38_crop.jpg,4,31,1.0,300.0,2,1378.465,111.0,31.0,DON'T EAT                                    EAT,1377.5859,1373.5659,1142.7968
302,2,False,left,avoid,neg,fungus13_crop.jpg,4,31,1.0,301.0,1,1380.5027,111.0,31.0,DON'T EAT                                    EAT,1379.6044,1373.5659,1142.7968
303,2,False,left,avoid,neg,fungus27_crop.jpg,4,31,1.0,302.0,1,1382.523,111.0,31.0,DON'T EAT                                    EAT,1381.6224,1373.5659,1142.7968
304,2,False,left,avoid,neg,fungus31_crop.jpg,4,31,1.0,303.0,1,1384.5544,111.0,31.0,DON'T EAT                                    EAT,1383.641,1373.5659,1142.7968
305,2,False,left,avoid,neg,fungus20_crop.jpg,4,31,1.0,304.0,1,1386.8914,111.0,31.0,DON'T EAT                                    EAT,1385.6593,1373.5659,1142.7968
306,2,False,left,avoid,neg,fungus39_crop.jpg,4,31,1.0,305.0,1,1388.694,111.0,31.0,DON'T EAT                                    EAT,1387.6777,1373.5659,1142.7968
307,2,False,left,avoid,neg,fungus28_crop.jpg,4,31,1.0,306.0,1,1390.6704,111.0,31.0,DON'T EAT                                    EAT,1389.696,1373.5659,1142.7968
308,2,True,left,approach,pos,cake37_crop.jpg,4,31,1.0,307.0,2,1392.7314,111.0,31.0,DON'T EAT                                    EAT,1391.7137,1373.5659,1142.7968
309,2,False,left,avoid,neg,fungus40_crop.jpg,4,31,1.0,308.0,1,1394.7579,111.0,31.0,DON'T EAT                                    EAT,1393.7325,1373.5659,1142.7968
310,2,False,left,avoid,neg,fungus9_crop.jpg,4,31,1.0,309.0,1,1396.8401,111.0,31.0,DON'T EAT                                    EAT,1395.7509,1373.5659,1142.7968
311,0,False,right,avoid,pos,meat26_crop.jpg,4,32,1.0,310.0,1,1413.2399,111.0,32.0,DON'T EAT                                    EAT,1412.2646,1408.2445,1142.7968
312,0,False,right,avoid,pos,meat32_crop.jpg,4,32,1.0,311.0,1,1415.1508,111.0,32.0,DON'T EAT                                    EAT,1414.2831,1408.2445,1142.7968
313,0,True,right,approach,neg,insect21_crop.jpg,4,32,1.0,312.0,2,1417.5538,111.0,32.0,DON'T EAT                                    EAT,1416.3014,1408.2445,1142.7968
314,0,False,right,avoid,pos,meat18_crop.jpg,4,32,1.0,313.0,1,1419.2921,111.0,32.0,DON'T EAT                                    EAT,1418.3196,1408.2445,1142.7968
315,0,False,right,avoid,pos,meat2_crop.jpg,4,32,1.0,314.0,1,1421.27,111.0,32.0,DON'T EAT                                    EAT,1420.3379,1408.2445,1142.7968
316,0,False,right,avoid,pos,meat21_crop.jpg,4,32,1.0,315.0,1,1423.355,111.0,32.0,DON'T EAT                                    EAT,1422.3564,1408.2445,1142.7968
317,0,False,right,avoid,pos,meat29_crop.jpg,4,32,1.0,316.0,1,1425.1589,111.0,32.0,DON'T EAT                                    EAT,1424.3743,1408.2445,1142.7968
318,0,True,right,approach,pos,cake1_crop.jpg,4,32,1.0,317.0,2,1427.5236,111.0,32.0,DON'T EAT                                    EAT,1426.3932,1408.2445,1142.7968
319,0,False,right,avoid,pos,meat19_crop.jpg,4,32,1.0,318.0,1,1429.8612,111.0,32.0,DON'T EAT                                    EAT,1428.4114,1408.2445,1142.7968
320,0,False,right,avoid,pos,meat7_crop.jpg,4,32,1.0,319.0,1,1431.3325,111.0,32.0,DON'T EAT                                    EAT,1430.4298,1408.2445,1142.7968
