subject,trial_number,n_block,catch,hand,mot,val,stim_name,run_number,num_block,ran,order,response,time_of_response,subject_number,left_side_resp_label,trial_onset,blk_instr_onset,baseline_onset,response_hand,response_cleaned,response_lat,response_lat_cleaned,response_meaning,response_meaning_cleaned,condition_mot,condition_val,condition,correct,correct_cleaned,rt
sub-039,1,0,FALSE,left,avoid,pos,meat9_crop.jpg,1,1,TRUE,0,2,1135.3698,39,DON'T EAT                                    EAT,1133.4797,1129.4597,1115.4906,left,2,right,right,eat,eat,avoid,pos,avoid-pos,0,0,1890.0999999998603
sub-039,2,0,FALSE,left,avoid,pos,meat13_crop.jpg,1,1,TRUE,1,1,1136.5948,39,DON'T EAT                                    EAT,1135.498,1129.4597,1115.4906,left,1,left,left,not_eat,not_eat,avoid,pos,avoid-pos,1,1,1096.8000000000466
sub-039,3,0,FALSE,left,avoid,pos,meat19_crop.jpg,1,1,TRUE,2,1,1138.3516,39,DON'T EAT                                    EAT,1137.5166,1129.4597,1115.4906,left,1,left,left,not_eat,not_eat,avoid,pos,avoid-pos,1,1,835
sub-039,4,0,FALSE,left,avoid,pos,meat20_crop.jpg,1,1,TRUE,3,1,1140.4147,39,DON'T EAT                                    EAT,1139.5377,1129.4597,1115.4906,left,1,left,left,not_eat,not_eat,avoid,pos,avoid-pos,1,1,876.9999999997672
sub-039,5,0,FALSE,left,avoid,pos,meat31_crop.jpg,1,1,TRUE,4,1,1142.2195,39,DON'T EAT                                    EAT,1141.5554,1129.4597,1115.4906,left,1,left,left,not_eat,not_eat,avoid,pos,avoid-pos,1,1,664.1000000000931
sub-039,6,0,FALSE,left,avoid,pos,meat16_crop.jpg,1,1,TRUE,5,1,1144.5483,39,DON'T EAT                                    EAT,1143.5714,1129.4597,1115.4906,left,1,left,left,not_eat,not_eat,avoid,pos,avoid-pos,1,1,976.899999999674
sub-039,7,0,TRUE,left,approach,neg,insect23_crop.jpg,1,1,TRUE,6,2,1146.5084,39,DON'T EAT                                    EAT,1145.5896,1129.4597,1115.4906,left,2,right,right,eat,eat,avoid,pos,avoid-pos,1,1,918.7999999998137
sub-039,8,0,FALSE,left,avoid,pos,meat24_crop.jpg,1,1,TRUE,7,1,1148.5483,39,DON'T EAT                                    EAT,1147.6082,1129.4597,1115.4906,left,1,left,left,not_eat,not_eat,avoid,pos,avoid-pos,1,1,940.0999999998603
sub-039,9,0,FALSE,left,avoid,pos,meat29_crop.jpg,1,1,TRUE,8,1,1150.5787,39,DON'T EAT                                    EAT,1149.6266,1129.4597,1115.4906,left,1,left,left,not_eat,not_eat,avoid,pos,avoid-pos,1,1,952.0999999998603
sub-039,10,0,TRUE,left,approach,pos,cake19_crop.jpg,1,1,TRUE,9,2,1152.7411,39,DON'T EAT                                    EAT,1151.6445,1129.4597,1115.4906,left,2,right,right,eat,eat,avoid,pos,avoid-pos,1,1,1096.5999999998603
sub-039,11,0,FALSE,left,approach,neg,insect32_crop.jpg,1,2,TRUE,10,2,1172.0826,39,DON'T EAT                                    EAT,1171.1111,1167.0907,1115.4906,left,2,right,right,eat,eat,approach,neg,approach-neg,1,1,971.4999999997672
sub-039,12,0,FALSE,left,approach,neg,insect40_crop.jpg,1,2,TRUE,11,2,1174.0986,39,DON'T EAT                                    EAT,1173.1294,1167.0907,1115.4906,left,2,right,right,eat,eat,approach,neg,approach-neg,1,1,969.1999999999534
sub-039,13,0,FALSE,left,approach,neg,insect3_crop.jpg,1,2,TRUE,12,2,1176.1078,39,DON'T EAT                                    EAT,1175.1477,1167.0907,1115.4906,left,2,right,right,eat,eat,approach,neg,approach-neg,1,1,960.1000000000931
sub-039,14,0,FALSE,left,approach,neg,insect10_crop.jpg,1,2,TRUE,13,2,1178.348,39,DON'T EAT                                    EAT,1177.1661,1167.0907,1115.4906,left,2,right,right,eat,eat,approach,neg,approach-neg,1,1,1181.9000000001397
sub-039,15,0,FALSE,left,approach,neg,insect38_crop.jpg,1,2,TRUE,14,2,1180.1823,39,DON'T EAT                                    EAT,1179.1843,1167.0907,1115.4906,left,2,right,right,eat,eat,approach,neg,approach-neg,1,1,998.0000000002328
sub-039,16,0,TRUE,left,avoid,neg,fungus37_crop.jpg,1,2,TRUE,15,1,1182.5101,39,DON'T EAT                                    EAT,1181.2026,1167.0907,1115.4906,left,1,left,left,not_eat,not_eat,approach,neg,approach-neg,1,1,1307.4999999997672
sub-039,17,0,FALSE,left,approach,neg,insect12_crop.jpg,1,2,TRUE,16,2,1184.1144,39,DON'T EAT                                    EAT,1183.2211,1167.0907,1115.4906,left,2,right,right,eat,eat,approach,neg,approach-neg,1,1,893.2999999998137
sub-039,18,0,TRUE,left,avoid,pos,meat12_crop.jpg,1,2,TRUE,17,1,1186.1483,39,DON'T EAT                                    EAT,1185.2394,1167.0907,1115.4906,left,1,left,left,not_eat,not_eat,approach,neg,approach-neg,1,1,908.9000000001397
sub-039,19,0,FALSE,left,approach,neg,insect21_crop.jpg,1,2,TRUE,18,2,1188.2295,39,DON'T EAT                                    EAT,1187.2576,1167.0907,1115.4906,left,2,right,right,eat,eat,approach,neg,approach-neg,1,1,971.9000000001397
sub-039,20,0,FALSE,left,approach,neg,insect30_crop.jpg,1,2,TRUE,19,2,1189.9938,39,DON'T EAT                                    EAT,1189.2762,1167.0907,1115.4906,left,2,right,right,eat,eat,approach,neg,approach-neg,1,1,717.6000000000931
sub-039,21,1,FALSE,left,avoid,neg,fungus22_crop.jpg,1,3,TRUE,20,1,1209.1434,39,DON'T EAT                                    EAT,1208.1418,1204.1217,1115.4906,left,1,left,left,not_eat,not_eat,avoid,neg,avoid-neg,1,1,1001.5999999998603
sub-039,22,1,FALSE,left,avoid,neg,fungus23_crop.jpg,1,3,TRUE,21,1,1211.2648,39,DON'T EAT                                    EAT,1210.1603,1204.1217,1115.4906,left,1,left,left,not_eat,not_eat,avoid,neg,avoid-neg,1,1,1104.4999999997672
sub-039,23,1,FALSE,left,avoid,neg,fungus4_crop.jpg,1,3,TRUE,22,1,1213.2992,39,DON'T EAT                                    EAT,1212.1785,1204.1217,1115.4906,left,1,left,left,not_eat,not_eat,avoid,neg,avoid-neg,1,1,1120.6999999999534
sub-039,24,1,FALSE,left,avoid,neg,fungus19_crop.jpg,1,3,TRUE,23,1,1215.0164,39,DON'T EAT                                    EAT,1214.1963,1204.1217,1115.4906,left,1,left,left,not_eat,not_eat,avoid,neg,avoid-neg,1,1,820.0999999998603
sub-039,25,1,FALSE,left,avoid,neg,fungus30_crop.jpg,1,3,TRUE,24,1,1217.0985,39,DON'T EAT                                    EAT,1216.2147,1204.1217,1115.4906,left,1,left,left,not_eat,not_eat,avoid,neg,avoid-neg,1,1,883.8000000000466
sub-039,26,1,TRUE,left,approach,pos,cake11_crop.jpg,1,3,TRUE,25,2,1219.373,39,DON'T EAT                                    EAT,1218.2332,1204.1217,1115.4906,left,2,right,right,eat,eat,avoid,neg,avoid-neg,1,1,1139.8000000000466
sub-039,27,1,FALSE,left,avoid,neg,fungus10_crop.jpg,1,3,TRUE,26,1,1221.2682,39,DON'T EAT                                    EAT,1220.2518,1204.1217,1115.4906,left,1,left,left,not_eat,not_eat,avoid,neg,avoid-neg,1,1,1016.3999999999069
sub-039,28,1,TRUE,left,approach,neg,insect19_crop.jpg,1,3,TRUE,27,2,1223.2722,39,DON'T EAT                                    EAT,1222.2701,1204.1217,1115.4906,left,2,right,right,eat,eat,avoid,neg,avoid-neg,1,1,1002.100000000326
sub-039,29,1,FALSE,left,avoid,neg,fungus34_crop.jpg,1,3,TRUE,28,1,1225.2574,39,DON'T EAT                                    EAT,1224.2887,1204.1217,1115.4906,left,1,left,left,not_eat,not_eat,avoid,neg,avoid-neg,1,1,968.6999999999534
sub-039,30,1,FALSE,left,avoid,neg,fungus11_crop.jpg,1,3,TRUE,29,1,1227.4861,39,DON'T EAT                                    EAT,1226.307,1204.1217,1115.4906,left,1,left,left,not_eat,not_eat,avoid,neg,avoid-neg,1,1,1179.1000000000931
sub-039,31,2,TRUE,right,approach,pos,cake37_crop.jpg,1,4,TRUE,30,2,1245.6588,39,DON'T EAT                                    EAT,1244.6055,1240.5853,1115.4906,left,2,right,right,eat,eat,avoid,neg,avoid-neg,1,1,1053.2999999998137
sub-039,32,2,FALSE,right,avoid,neg,fungus11_crop.jpg,1,4,TRUE,31,1,1247.807,39,DON'T EAT                                    EAT,1246.6238,1240.5853,1115.4906,left,1,left,left,not_eat,not_eat,avoid,neg,avoid-neg,1,1,1183.1999999999534
sub-039,33,2,FALSE,right,avoid,neg,fungus31_crop.jpg,1,4,TRUE,32,1,1249.8223,39,DON'T EAT                                    EAT,1248.6421,1240.5853,1115.4906,left,1,left,left,not_eat,not_eat,avoid,neg,avoid-neg,1,1,1180.1999999999534
sub-039,34,2,FALSE,right,avoid,neg,fungus35_crop.jpg,1,4,TRUE,33,1,1251.587,39,DON'T EAT                                    EAT,1250.6604,1240.5853,1115.4906,left,1,left,left,not_eat,not_eat,avoid,neg,avoid-neg,1,1,926.6000000000931
sub-039,35,2,FALSE,right,avoid,neg,fungus14_crop.jpg,1,4,TRUE,34,1,1253.6998,39,DON'T EAT                                    EAT,1252.6782,1240.5853,1115.4906,left,1,left,left,not_eat,not_eat,avoid,neg,avoid-neg,1,1,1021.6000000000931
sub-039,36,2,FALSE,right,avoid,neg,fungus17_crop.jpg,1,4,TRUE,35,1,1256.0753,39,DON'T EAT                                    EAT,1254.6971,1240.5853,1115.4906,left,1,left,left,not_eat,not_eat,avoid,neg,avoid-neg,1,1,1378.1999999999534
sub-039,37,2,FALSE,right,avoid,neg,fungus34_crop.jpg,1,4,TRUE,36,1,1257.8964,39,DON'T EAT                                    EAT,1256.7156,1240.5853,1115.4906,left,1,left,left,not_eat,not_eat,avoid,neg,avoid-neg,1,1,1180.8000000000466
sub-039,38,2,TRUE,right,approach,neg,insect9_crop.jpg,1,4,TRUE,37,2,1259.9493,39,DON'T EAT                                    EAT,1258.7339,1240.5853,1115.4906,left,2,right,right,eat,eat,avoid,neg,avoid-neg,1,1,1215.4000000001397
sub-039,39,2,FALSE,right,avoid,neg,fungus16_crop.jpg,1,4,TRUE,38,1,1261.9932,39,DON'T EAT                                    EAT,1260.7518,1240.5853,1115.4906,left,1,left,left,not_eat,not_eat,avoid,neg,avoid-neg,1,1,1241.3999999999069
sub-039,40,2,FALSE,right,avoid,neg,fungus26_crop.jpg,1,4,TRUE,39,1,1263.7714,39,DON'T EAT                                    EAT,1262.7701,1240.5853,1115.4906,left,1,left,left,not_eat,not_eat,avoid,neg,avoid-neg,1,1,1001.3000000002794
sub-039,41,3,FALSE,left,avoid,pos,meat3_crop.jpg,1,5,TRUE,40,1,1282.453,39,DON'T EAT                                    EAT,1281.1355,1277.1157,1115.4906,left,1,left,left,not_eat,not_eat,avoid,pos,avoid-pos,1,1,1317.5
sub-039,42,3,TRUE,left,approach,neg,insect9_crop.jpg,1,5,TRUE,41,2,1284.5383,39,DON'T EAT                                    EAT,1283.1537,1277.1157,1115.4906,left,2,right,right,eat,eat,avoid,pos,avoid-pos,1,1,1384.5999999998603
sub-039,43,3,FALSE,left,avoid,pos,meat36_crop.jpg,1,5,TRUE,42,1,1286.1432,39,DON'T EAT                                    EAT,1285.1722,1277.1157,1115.4906,left,1,left,left,not_eat,not_eat,avoid,pos,avoid-pos,1,1,971
sub-039,44,3,FALSE,left,avoid,pos,meat33_crop.jpg,1,5,TRUE,43,1,1288.5662,39,DON'T EAT                                    EAT,1287.1906,1277.1157,1115.4906,left,1,left,left,not_eat,not_eat,avoid,pos,avoid-pos,1,1,1375.6000000000931
sub-039,45,3,TRUE,left,approach,pos,cake24_crop.jpg,1,5,TRUE,44,2,1290.8042,39,DON'T EAT                                    EAT,1289.2091,1277.1157,1115.4906,left,2,right,right,eat,eat,avoid,pos,avoid-pos,1,1,1595.0999999998603
sub-039,46,3,FALSE,left,avoid,pos,meat25_crop.jpg,1,5,TRUE,45,1,1292.4279,39,DON'T EAT                                    EAT,1291.2273,1277.1157,1115.4906,left,1,left,left,not_eat,not_eat,avoid,pos,avoid-pos,1,1,1200.5999999998603
sub-039,47,3,FALSE,left,avoid,pos,meat39_crop.jpg,1,5,TRUE,46,1,1294.5426,39,DON'T EAT                                    EAT,1293.2458,1277.1157,1115.4906,left,1,left,left,not_eat,not_eat,avoid,pos,avoid-pos,1,1,1296.8000000002794
sub-039,48,3,FALSE,left,avoid,pos,meat30_crop.jpg,1,5,TRUE,47,1,1296.6714,39,DON'T EAT                                    EAT,1295.2642,1277.1157,1115.4906,left,1,left,left,not_eat,not_eat,avoid,pos,avoid-pos,1,1,1407.1999999997206
sub-039,49,3,FALSE,left,avoid,pos,meat26_crop.jpg,1,5,TRUE,48,1,1298.0598,39,DON'T EAT                                    EAT,1297.2821,1277.1157,1115.4906,left,1,left,left,not_eat,not_eat,avoid,pos,avoid-pos,1,1,777.7000000001863
sub-039,50,3,FALSE,left,avoid,pos,meat35_crop.jpg,1,5,TRUE,49,1,1300.2098,39,DON'T EAT                                    EAT,1299.3009,1277.1157,1115.4906,left,1,left,left,not_eat,not_eat,avoid,pos,avoid-pos,1,1,908.9000000001397
sub-039,51,3,FALSE,left,approach,neg,insect20_crop.jpg,1,6,TRUE,50,2,1320.3132,39,DON'T EAT                                    EAT,1318.7504,1314.7301,1115.4906,left,2,right,right,eat,eat,approach,neg,approach-neg,1,1,1562.8000000000466
sub-039,52,3,TRUE,left,avoid,neg,fungus14_crop.jpg,1,6,TRUE,51,1,1322.2617,39,DON'T EAT                                    EAT,1320.7684,1314.7301,1115.4906,left,1,left,left,not_eat,not_eat,approach,neg,approach-neg,1,1,1493.3000000000466
sub-039,53,3,FALSE,left,approach,neg,insect37_crop.jpg,1,6,TRUE,52,2,1324.328,39,DON'T EAT                                    EAT,1322.7865,1314.7301,1115.4906,left,2,right,right,eat,eat,approach,neg,approach-neg,1,1,1541.5
sub-039,54,3,FALSE,left,approach,neg,insect28_crop.jpg,1,6,TRUE,53,2,1325.942,39,DON'T EAT                                    EAT,1324.8054,1314.7301,1115.4906,left,2,right,right,eat,eat,approach,neg,approach-neg,1,1,1136.6000000000931
sub-039,55,3,FALSE,left,approach,neg,insect17_crop.jpg,1,6,TRUE,54,2,1327.6079,39,DON'T EAT                                    EAT,1326.8237,1314.7301,1115.4906,left,2,right,right,eat,eat,approach,neg,approach-neg,1,1,784.1999999999534
sub-039,56,3,FALSE,left,approach,neg,insect35_crop.jpg,1,6,TRUE,55,2,1329.7076,39,DON'T EAT                                    EAT,1328.8422,1314.7301,1115.4906,left,2,right,right,eat,eat,approach,neg,approach-neg,1,1,865.3999999999069
sub-039,57,3,FALSE,left,approach,neg,insect11_crop.jpg,1,6,TRUE,56,2,1331.7388,39,DON'T EAT                                    EAT,1330.8605,1314.7301,1115.4906,left,2,right,right,eat,eat,approach,neg,approach-neg,1,1,878.3000000000466
sub-039,58,3,FALSE,left,approach,neg,insect31_crop.jpg,1,6,TRUE,57,2,1333.5116,39,DON'T EAT                                    EAT,1332.8784,1314.7301,1115.4906,left,2,right,right,eat,eat,approach,neg,approach-neg,1,1,633.1999999999534
sub-039,59,3,FALSE,left,approach,neg,insect16_crop.jpg,1,6,TRUE,58,2,1335.6996,39,DON'T EAT                                    EAT,1334.8969,1314.7301,1115.4906,left,2,right,right,eat,eat,approach,neg,approach-neg,1,1,802.6999999999534
sub-039,60,3,TRUE,left,avoid,pos,meat32_crop.jpg,1,6,TRUE,59,1,1337.9102,39,DON'T EAT                                    EAT,1336.9155,1314.7301,1115.4906,left,1,left,left,not_eat,not_eat,approach,neg,approach-neg,1,1,994.6999999999534
sub-039,61,0,FALSE,right,approach,pos,cake4_crop.jpg,1,7,TRUE,60,2,1355.319,39,DON'T EAT                                    EAT,1353.629,1349.609,1115.4906,left,2,right,right,eat,eat,approach,pos,approach-pos,1,1,1690
sub-039,62,0,FALSE,right,approach,pos,cake28_crop.jpg,1,7,TRUE,61,2,1356.3638,39,DON'T EAT                                    EAT,1355.6477,1349.609,1115.4906,left,2,right,right,eat,eat,approach,pos,approach-pos,1,1,716.1000000000931
sub-039,63,0,FALSE,right,approach,pos,cake16_crop.jpg,1,7,TRUE,62,2,1358.602,39,DON'T EAT                                    EAT,1357.666,1349.609,1115.4906,left,2,right,right,eat,eat,approach,pos,approach-pos,1,1,936
sub-039,64,0,FALSE,right,approach,pos,cake36_crop.jpg,1,7,TRUE,63,2,1360.4036,39,DON'T EAT                                    EAT,1359.6843,1349.609,1115.4906,left,2,right,right,eat,eat,approach,pos,approach-pos,1,1,719.3000000002794
sub-039,65,0,FALSE,right,approach,pos,cake27_crop.jpg,1,7,TRUE,64,2,1362.7178,39,DON'T EAT                                    EAT,1361.7026,1349.609,1115.4906,left,2,right,right,eat,eat,approach,pos,approach-pos,1,1,1015.1999999997206
sub-039,66,0,TRUE,right,avoid,neg,fungus36_crop.jpg,1,7,TRUE,65,1,1364.7677,39,DON'T EAT                                    EAT,1363.7211,1349.609,1115.4906,left,1,left,left,not_eat,not_eat,approach,pos,approach-pos,1,1,1046.6000000000931
sub-039,67,0,FALSE,right,approach,pos,cake30_crop.jpg,1,7,TRUE,66,2,1366.7422,39,DON'T EAT                                    EAT,1365.7394,1349.609,1115.4906,left,2,right,right,eat,eat,approach,pos,approach-pos,1,1,1002.8000000000466
sub-039,68,0,TRUE,right,avoid,pos,meat35_crop.jpg,1,7,TRUE,67,1,1368.7981,39,DON'T EAT                                    EAT,1367.7577000000001,1349.609,1115.4906,left,1,left,left,not_eat,not_eat,approach,pos,approach-pos,1,1,1040.3999999999069
sub-039,69,0,FALSE,right,approach,pos,cake13_crop.jpg,1,7,TRUE,68,2,1370.6473,39,DON'T EAT                                    EAT,1369.7761,1349.609,1115.4906,left,2,right,right,eat,eat,approach,pos,approach-pos,1,1,871.1999999999534
sub-039,70,0,FALSE,right,approach,pos,cake7_crop.jpg,1,7,TRUE,69,2,1372.5016,39,DON'T EAT                                    EAT,1371.7944,1349.609,1115.4906,left,2,right,right,eat,eat,approach,pos,approach-pos,1,1,707.2000000001863
sub-039,71,3,FALSE,right,avoid,pos,meat36_crop.jpg,1,8,TRUE,70,1,1390.6038,39,DON'T EAT                                    EAT,1389.309,1385.2886,1115.4906,left,1,left,left,not_eat,not_eat,avoid,pos,avoid-pos,1,1,1294.8000000000466
sub-039,72,3,FALSE,right,avoid,pos,meat29_crop.jpg,1,8,TRUE,71,1,1392.2233,39,DON'T EAT                                    EAT,1391.327,1385.2886,1115.4906,left,1,left,left,not_eat,not_eat,avoid,pos,avoid-pos,1,1,896.3000000000466
sub-039,73,3,FALSE,right,avoid,pos,meat39_crop.jpg,1,8,TRUE,72,1,1394.9917,39,DON'T EAT                                    EAT,1393.3457,1385.2886,1115.4906,left,1,left,left,not_eat,not_eat,avoid,pos,avoid-pos,1,1,1645.9999999997672
sub-039,74,3,FALSE,right,avoid,pos,meat12_crop.jpg,1,8,TRUE,73,1,1396.1323,39,DON'T EAT                                    EAT,1395.364,1385.2886,1115.4906,left,1,left,left,not_eat,not_eat,avoid,pos,avoid-pos,1,1,768.3000000000466
sub-039,75,3,FALSE,right,avoid,pos,meat3_crop.jpg,1,8,TRUE,74,1,1398.3329,39,DON'T EAT                                    EAT,1397.3823,1385.2886,1115.4906,left,1,left,left,not_eat,not_eat,avoid,pos,avoid-pos,1,1,950.6000000000931
sub-039,76,3,TRUE,right,approach,neg,insect36_crop.jpg,1,8,TRUE,75,2,1401.1859,39,DON'T EAT                                    EAT,1399.4008,1385.2886,1115.4906,left,2,right,right,eat,eat,avoid,pos,avoid-pos,1,1,1785.1000000000931
sub-039,77,3,FALSE,right,avoid,pos,meat7_crop.jpg,1,8,TRUE,76,1,1402.1582,39,DON'T EAT                                    EAT,1401.4192,1385.2886,1115.4906,left,1,left,left,not_eat,not_eat,avoid,pos,avoid-pos,1,1,739.0000000002328
sub-039,78,3,FALSE,right,avoid,pos,meat38_crop.jpg,1,8,TRUE,77,1,1404.0992,39,DON'T EAT                                    EAT,1403.437,1385.2886,1115.4906,left,1,left,left,not_eat,not_eat,avoid,pos,avoid-pos,1,1,662.2000000001863
sub-039,79,3,FALSE,right,avoid,pos,meat13_crop.jpg,1,8,TRUE,78,1,1406.1206,39,DON'T EAT                                    EAT,1405.4558,1385.2886,1115.4906,left,1,left,left,not_eat,not_eat,avoid,pos,avoid-pos,1,1,664.7999999998137
sub-039,80,3,TRUE,right,approach,pos,cake38_crop.jpg,1,8,TRUE,79,2,1408.4003,39,DON'T EAT                                    EAT,1407.4741,1385.2886,1115.4906,left,2,right,right,eat,eat,avoid,pos,avoid-pos,1,1,926.2000000001863
sub-039,81,0,TRUE,right,approach,neg,insect34_crop.jpg,2,9,TRUE,80,2,1506.2069,39,DON'T EAT                                    EAT,1504.9382,1500.9181,1488.3638,right,2,right,right,eat,eat,avoid,neg,avoid-neg,1,1,1268.6999999999534
sub-039,82,0,FALSE,right,avoid,neg,fungus38_crop.jpg,2,9,TRUE,81,1,1508.0643,39,DON'T EAT                                    EAT,1506.9569,1500.9181,1488.3638,right,1,left,left,not_eat,not_eat,avoid,neg,avoid-neg,1,1,1107.4000000001397
sub-039,83,0,TRUE,right,approach,pos,cake2_crop.jpg,2,9,TRUE,82,2,1510.0613,39,DON'T EAT                                    EAT,1508.9751,1500.9181,1488.3638,right,2,right,right,eat,eat,avoid,neg,avoid-neg,1,1,1086.1999999999534
sub-039,84,0,FALSE,right,avoid,neg,fungus29_crop.jpg,2,9,TRUE,83,1,1512.1139,39,DON'T EAT                                    EAT,1510.9934,1500.9181,1488.3638,right,1,left,left,not_eat,not_eat,avoid,neg,avoid-neg,1,1,1120.5
sub-039,85,0,FALSE,right,avoid,neg,fungus6_crop.jpg,2,9,TRUE,84,1,1513.9695,39,DON'T EAT                                    EAT,1513.0114,1500.9181,1488.3638,right,1,left,left,not_eat,not_eat,avoid,neg,avoid-neg,1,1,958.0999999998603
sub-039,86,0,FALSE,right,avoid,neg,fungus27_crop.jpg,2,9,TRUE,85,1,1515.8118,39,DON'T EAT                                    EAT,1515.03,1500.9181,1488.3638,right,1,left,left,not_eat,not_eat,avoid,neg,avoid-neg,1,1,781.8000000000466
sub-039,87,0,FALSE,right,avoid,neg,fungus40_crop.jpg,2,9,TRUE,86,1,1518.2095,39,DON'T EAT                                    EAT,1517.0485,1500.9181,1488.3638,right,1,left,left,not_eat,not_eat,avoid,neg,avoid-neg,1,1,1161
sub-039,88,0,FALSE,right,avoid,neg,fungus12_crop.jpg,2,9,TRUE,87,1,1520.0706,39,DON'T EAT                                    EAT,1519.0668,1500.9181,1488.3638,right,1,left,left,not_eat,not_eat,avoid,neg,avoid-neg,1,1,1003.8000000000466
sub-039,89,0,FALSE,right,avoid,neg,fungus28_crop.jpg,2,9,TRUE,88,1,1521.9193,39,DON'T EAT                                    EAT,1521.0852,1500.9181,1488.3638,right,1,left,left,not_eat,not_eat,avoid,neg,avoid-neg,1,1,834.1000000000931
sub-039,90,0,FALSE,right,avoid,neg,fungus9_crop.jpg,2,9,TRUE,89,1,1523.8685,39,DON'T EAT                                    EAT,1523.1029,1500.9181,1488.3638,right,1,left,left,not_eat,not_eat,avoid,neg,avoid-neg,1,1,765.5999999998603
sub-039,91,0,FALSE,left,approach,pos,cake17_crop.jpg,2,10,TRUE,90,2,1541.9259,39,DON'T EAT                                    EAT,1540.7515,1536.7313,1488.3638,right,2,right,right,eat,eat,approach,pos,approach-pos,1,1,1174.3999999999069
sub-039,92,0,FALSE,left,approach,pos,cake10_crop.jpg,2,10,TRUE,91,2,1544.1442,39,DON'T EAT                                    EAT,1542.7694,1536.7313,1488.3638,right,2,right,right,eat,eat,approach,pos,approach-pos,1,1,1374.8000000000466
sub-039,93,0,FALSE,left,approach,pos,cake38_crop.jpg,2,10,TRUE,92,2,1545.746,39,DON'T EAT                                    EAT,1544.7882,1536.7313,1488.3638,right,2,right,right,eat,eat,approach,pos,approach-pos,1,1,957.8000000000466
sub-039,94,0,TRUE,left,avoid,neg,fungus7_crop.jpg,2,10,TRUE,93,1,1547.9247,39,DON'T EAT                                    EAT,1546.8065,1536.7313,1488.3638,right,1,left,left,not_eat,not_eat,approach,pos,approach-pos,1,1,1118.1999999999534
sub-039,95,0,FALSE,left,approach,pos,cake3_crop.jpg,2,10,TRUE,94,2,1549.7635,39,DON'T EAT                                    EAT,1548.825,1536.7313,1488.3638,right,2,right,right,eat,eat,approach,pos,approach-pos,1,1,938.5
sub-039,96,0,FALSE,left,approach,pos,cake26_crop.jpg,2,10,TRUE,95,2,1551.6145,39,DON'T EAT                                    EAT,1550.8433,1536.7313,1488.3638,right,2,right,right,eat,eat,approach,pos,approach-pos,1,1,771.1999999999534
sub-039,97,0,FALSE,left,approach,pos,cake18_crop.jpg,2,10,TRUE,96,2,1554.0557,39,DON'T EAT                                    EAT,1552.8611,1536.7313,1488.3638,right,2,right,right,eat,eat,approach,pos,approach-pos,1,1,1194.5999999998603
sub-039,98,0,TRUE,left,avoid,pos,meat10_crop.jpg,2,10,TRUE,97,1,1555.9188,39,DON'T EAT                                    EAT,1554.8795,1536.7313,1488.3638,right,1,left,left,not_eat,not_eat,approach,pos,approach-pos,1,1,1039.2999999998137
sub-039,99,0,FALSE,left,approach,pos,cake20_crop.jpg,2,10,TRUE,98,2,1557.836,39,DON'T EAT                                    EAT,1556.8977,1536.7313,1488.3638,right,2,right,right,eat,eat,approach,pos,approach-pos,1,1,938.3000000000466
sub-039,100,0,FALSE,left,approach,pos,cake31_crop.jpg,2,10,TRUE,99,2,1559.7598,39,DON'T EAT                                    EAT,1558.9166,1536.7313,1488.3638,right,2,right,right,eat,eat,approach,pos,approach-pos,1,1,843.1999999999534
sub-039,101,1,FALSE,right,approach,neg,insect20_crop.jpg,2,11,TRUE,100,2,1576.2433,39,DON'T EAT                                    EAT,1575.2302,1571.2098,1488.3638,right,2,right,right,eat,eat,approach,neg,approach-neg,1,1,1013.1000000000931
sub-039,102,1,TRUE,right,avoid,pos,meat16_crop.jpg,2,11,TRUE,101,1,1578.115,39,DON'T EAT                                    EAT,1577.2484,1571.2098,1488.3638,right,1,left,left,not_eat,not_eat,approach,neg,approach-neg,1,1,866.6000000000931
sub-039,103,1,FALSE,right,approach,neg,insect28_crop.jpg,2,11,TRUE,102,2,1580.1869,39,DON'T EAT                                    EAT,1579.2668,1571.2098,1488.3638,right,2,right,right,eat,eat,approach,neg,approach-neg,1,1,920.0999999998603
sub-039,104,1,FALSE,right,approach,neg,insect23_crop.jpg,2,11,TRUE,103,2,1581.9165,39,DON'T EAT                                    EAT,1581.2848,1571.2098,1488.3638,right,2,right,right,eat,eat,approach,neg,approach-neg,1,1,631.7000000001863
sub-039,105,1,FALSE,right,approach,neg,insect37_crop.jpg,2,11,TRUE,104,2,1583.9075,39,DON'T EAT                                    EAT,1583.303,1571.2098,1488.3638,right,2,right,right,eat,eat,approach,neg,approach-neg,1,1,604.5
sub-039,106,1,TRUE,right,avoid,neg,fungus10_crop.jpg,2,11,TRUE,105,1,1586.1831,39,DON'T EAT                                    EAT,1585.3219,1571.2098,1488.3638,right,1,left,left,not_eat,not_eat,approach,neg,approach-neg,1,1,861.1999999999534
sub-039,107,1,FALSE,right,approach,neg,insect11_crop.jpg,2,11,TRUE,106,2,1588.2368,39,DON'T EAT                                    EAT,1587.3401,1571.2098,1488.3638,right,2,right,right,eat,eat,approach,neg,approach-neg,1,1,896.6999999999534
sub-039,108,1,FALSE,right,approach,neg,insect10_crop.jpg,2,11,TRUE,107,2,1590.096,39,DON'T EAT                                    EAT,1589.3584,1571.2098,1488.3638,right,2,right,right,eat,eat,approach,neg,approach-neg,1,1,737.5999999998603
sub-039,109,1,FALSE,right,approach,neg,insect16_crop.jpg,2,11,TRUE,108,2,1592.102,39,DON'T EAT                                    EAT,1591.3768,1571.2098,1488.3638,right,2,right,right,eat,eat,approach,neg,approach-neg,1,1,725.1999999999534
sub-039,110,1,FALSE,right,approach,neg,insect19_crop.jpg,2,11,TRUE,109,2,1593.8059,39,DON'T EAT                                    EAT,1593.3948,1571.2098,1488.3638,right,2,right,right,eat,eat,approach,neg,approach-neg,1,1,411.10000000009313
sub-039,111,1,FALSE,right,approach,pos,cake3_crop.jpg,2,12,TRUE,110,2,1611.9269,39,DON'T EAT                                    EAT,1610.6595,1606.6395,1488.3638,right,2,right,right,eat,eat,approach,pos,approach-pos,1,1,1267.3999999999069
sub-039,112,1,FALSE,right,approach,pos,cake17_crop.jpg,2,12,TRUE,111,2,1613.7517,39,DON'T EAT                                    EAT,1612.6779,1606.6395,1488.3638,right,2,right,right,eat,eat,approach,pos,approach-pos,1,1,1073.8000000000466
sub-039,113,1,FALSE,right,approach,pos,cake29_crop.jpg,2,12,TRUE,112,2,1615.5411,39,DON'T EAT                                    EAT,1614.6962,1606.6395,1488.3638,right,2,right,right,eat,eat,approach,pos,approach-pos,1,1,844.899999999674
sub-039,114,1,FALSE,right,approach,pos,cake31_crop.jpg,2,12,TRUE,113,2,1617.3706,39,DON'T EAT                                    EAT,1616.7148,1606.6395,1488.3638,right,2,right,right,eat,eat,approach,pos,approach-pos,1,1,655.7999999998137
sub-039,115,1,TRUE,right,avoid,neg,fungus32_crop.jpg,2,12,TRUE,114,1,1619.8633,39,DON'T EAT                                    EAT,1618.7329,1606.6395,1488.3638,right,1,left,left,not_eat,not_eat,approach,pos,approach-pos,1,1,1130.4000000001397
sub-039,116,1,FALSE,right,approach,pos,cake9_crop.jpg,2,12,TRUE,115,2,1621.8082,39,DON'T EAT                                    EAT,1620.7512,1606.6395,1488.3638,right,2,right,right,eat,eat,approach,pos,approach-pos,1,1,1057
sub-039,117,1,TRUE,right,avoid,pos,meat20_crop.jpg,2,12,TRUE,116,1,1623.6125,39,DON'T EAT                                    EAT,1622.7695,1606.6395,1488.3638,right,1,left,left,not_eat,not_eat,approach,pos,approach-pos,1,1,843
sub-039,118,1,FALSE,right,approach,pos,cake19_crop.jpg,2,12,TRUE,117,2,1625.7656,39,DON'T EAT                                    EAT,1624.7878,1606.6395,1488.3638,right,2,right,right,eat,eat,approach,pos,approach-pos,1,1,977.7999999998137
sub-039,119,1,FALSE,right,approach,pos,cake11_crop.jpg,2,12,TRUE,118,2,1627.7341,39,DON'T EAT                                    EAT,1626.8063,1606.6395,1488.3638,right,2,right,right,eat,eat,approach,pos,approach-pos,1,1,927.7999999998137
sub-039,120,1,FALSE,right,approach,pos,cake1_crop.jpg,2,12,TRUE,119,2,1629.5936,39,DON'T EAT                                    EAT,1628.825,1606.6395,1488.3638,right,2,right,right,eat,eat,approach,pos,approach-pos,1,1,768.5999999998603
sub-039,121,1,FALSE,left,approach,neg,insect36_crop.jpg,2,13,TRUE,120,--,NA,39,DON'T EAT                                    EAT,1647.2068,1643.186,1488.3638,right,--,NA,NA,no_response,no_response,approach,neg,approach-neg,NA,NA,NA
sub-039,122,1,FALSE,left,approach,neg,insect4_crop.jpg,2,13,TRUE,121,2,1649.3209,39,DON'T EAT                                    EAT,1649.225,1643.186,1488.3638,right,2,right,right,eat,eat,approach,neg,approach-neg,1,1,95.89999999990687
sub-039,123,1,FALSE,left,approach,neg,insect7_crop.jpg,2,13,TRUE,122,2,1651.8663,39,DON'T EAT                                    EAT,1651.2428,1643.186,1488.3638,right,2,right,right,eat,eat,approach,neg,approach-neg,1,1,623.4999999997672
sub-039,124,1,FALSE,left,approach,neg,insect6_crop.jpg,2,13,TRUE,123,2,1653.7401,39,DON'T EAT                                    EAT,1653.2612,1643.186,1488.3638,right,2,right,right,eat,eat,approach,neg,approach-neg,1,1,478.9000000001397
sub-039,125,1,TRUE,left,avoid,pos,meat21_crop.jpg,2,13,TRUE,124,1,1656.1241,39,DON'T EAT                                    EAT,1655.2799,1643.186,1488.3638,right,1,left,left,not_eat,not_eat,approach,neg,approach-neg,1,1,844.2000000001863
sub-039,126,1,FALSE,left,approach,neg,insect2_crop.jpg,2,13,TRUE,125,2,1658.1448,39,DON'T EAT                                    EAT,1657.2983,1643.186,1488.3638,right,2,right,right,eat,eat,approach,neg,approach-neg,1,1,846.5000000002328
sub-039,127,1,FALSE,left,approach,neg,insect14_crop.jpg,2,13,TRUE,126,2,1659.8765,39,DON'T EAT                                    EAT,1659.3168,1643.186,1488.3638,right,2,right,right,eat,eat,approach,neg,approach-neg,1,1,559.6999999999534
sub-039,128,1,TRUE,left,avoid,neg,fungus9_crop.jpg,2,13,TRUE,127,1,1662.179,39,DON'T EAT                                    EAT,1661.3351,1643.186,1488.3638,right,1,left,left,not_eat,not_eat,approach,neg,approach-neg,1,1,843.8999999999069
sub-039,129,1,FALSE,left,approach,neg,insect27_crop.jpg,2,13,TRUE,128,2,1664.1823,39,DON'T EAT                                    EAT,1663.3528,1643.186,1488.3638,right,2,right,right,eat,eat,approach,neg,approach-neg,1,1,829.5000000002328
sub-039,130,1,FALSE,left,approach,neg,insect39_crop.jpg,2,13,TRUE,129,2,1665.9078,39,DON'T EAT                                    EAT,1665.3716,1643.186,1488.3638,right,2,right,right,eat,eat,approach,neg,approach-neg,1,1,536.2000000001863
sub-039,131,2,FALSE,left,avoid,neg,fungus15_crop.jpg,2,14,TRUE,130,1,1684.9268,39,DON'T EAT                                    EAT,1683.7533,1679.733,1488.3638,right,1,left,left,not_eat,not_eat,avoid,neg,avoid-neg,1,1,1173.5
sub-039,132,2,FALSE,left,avoid,neg,fungus27_crop.jpg,2,14,TRUE,131,1,1686.5195,39,DON'T EAT                                    EAT,1685.772,1679.733,1488.3638,right,1,left,left,not_eat,not_eat,avoid,neg,avoid-neg,1,1,747.5
sub-039,133,2,FALSE,left,avoid,neg,fungus6_crop.jpg,2,14,TRUE,132,1,1688.5483,39,DON'T EAT                                    EAT,1687.7903,1679.733,1488.3638,right,1,left,left,not_eat,not_eat,avoid,neg,avoid-neg,1,1,758
sub-039,134,2,TRUE,left,approach,neg,insect24_crop.jpg,2,14,TRUE,133,2,1690.7892,39,DON'T EAT                                    EAT,1689.8086,1679.733,1488.3638,right,2,right,right,eat,eat,avoid,neg,avoid-neg,1,1,980.5999999998603
sub-039,135,2,TRUE,left,approach,pos,cake28_crop.jpg,2,14,TRUE,134,2,1692.9685,39,DON'T EAT                                    EAT,1691.827,1679.733,1488.3638,right,2,right,right,eat,eat,avoid,neg,avoid-neg,1,1,1141.5
sub-039,136,2,FALSE,left,avoid,neg,fungus26_crop.jpg,2,14,TRUE,135,1,1694.8477,39,DON'T EAT                                    EAT,1693.8453,1679.733,1488.3638,right,1,left,left,not_eat,not_eat,avoid,neg,avoid-neg,1,1,1002.3999999999069
sub-039,137,2,FALSE,left,avoid,neg,fungus38_crop.jpg,2,14,TRUE,136,1,1696.6642,39,DON'T EAT                                    EAT,1695.8636,1679.733,1488.3638,right,1,left,left,not_eat,not_eat,avoid,neg,avoid-neg,1,1,800.6000000000931
sub-039,138,2,FALSE,left,avoid,neg,fungus32_crop.jpg,2,14,TRUE,137,1,1698.6088,39,DON'T EAT                                    EAT,1697.882,1679.733,1488.3638,right,1,left,left,not_eat,not_eat,avoid,neg,avoid-neg,1,1,726.8000000000466
sub-039,139,2,FALSE,left,avoid,neg,fungus36_crop.jpg,2,14,TRUE,138,1,1700.6403,39,DON'T EAT                                    EAT,1699.9003,1679.733,1488.3638,right,1,left,left,not_eat,not_eat,avoid,neg,avoid-neg,1,1,740
sub-039,140,2,FALSE,left,avoid,neg,fungus1_crop.jpg,2,14,TRUE,139,1,1702.7312,39,DON'T EAT                                    EAT,1701.9186,1679.733,1488.3638,right,1,left,left,not_eat,not_eat,avoid,neg,avoid-neg,1,1,812.6000000000931
sub-039,141,2,TRUE,left,approach,pos,cake8_crop.jpg,2,15,TRUE,140,2,1722.0265,39,DON'T EAT                                    EAT,1720.9513,1716.9312,1488.3638,right,2,right,right,eat,eat,avoid,pos,avoid-pos,1,1,1075.1999999999534
sub-039,142,2,FALSE,left,avoid,pos,meat15_crop.jpg,2,15,TRUE,141,1,1723.847,39,DON'T EAT                                    EAT,1722.969,1716.9312,1488.3638,right,1,left,left,not_eat,not_eat,avoid,pos,avoid-pos,1,1,878
sub-039,143,2,FALSE,left,avoid,pos,meat5_crop.jpg,2,15,TRUE,142,1,1725.7059,39,DON'T EAT                                    EAT,1724.9878,1716.9312,1488.3638,right,1,left,left,not_eat,not_eat,avoid,pos,avoid-pos,1,1,718.0999999998603
sub-039,144,2,TRUE,left,approach,neg,insect18_crop.jpg,2,15,TRUE,143,2,1728.0264,39,DON'T EAT                                    EAT,1727.0063,1716.9312,1488.3638,right,2,right,right,eat,eat,avoid,pos,avoid-pos,1,1,1020.0999999998603
sub-039,145,2,FALSE,left,avoid,pos,meat18_crop.jpg,2,15,TRUE,144,1,1729.8259,39,DON'T EAT                                    EAT,1729.0245,1716.9312,1488.3638,right,1,left,left,not_eat,not_eat,avoid,pos,avoid-pos,1,1,801.4000000001397
sub-039,146,2,FALSE,left,avoid,pos,meat7_crop.jpg,2,15,TRUE,145,1,1731.6672,39,DON'T EAT                                    EAT,1731.043,1716.9312,1488.3638,right,1,left,left,not_eat,not_eat,avoid,pos,avoid-pos,1,1,624.2000000001863
sub-039,147,2,FALSE,left,avoid,pos,meat34_crop.jpg,2,15,TRUE,146,1,1733.8096,39,DON'T EAT                                    EAT,1733.0608,1716.9312,1488.3638,right,1,left,left,not_eat,not_eat,avoid,pos,avoid-pos,1,1,748.8000000000466
sub-039,148,2,FALSE,left,avoid,pos,meat40_crop.jpg,2,15,TRUE,147,1,1735.7834,39,DON'T EAT                                    EAT,1735.0796,1716.9312,1488.3638,right,1,left,left,not_eat,not_eat,avoid,pos,avoid-pos,1,1,703.8000000000466
sub-039,149,2,FALSE,left,avoid,pos,meat1_crop.jpg,2,15,TRUE,148,1,1738.457,39,DON'T EAT                                    EAT,1737.0978,1716.9312,1488.3638,right,1,left,left,not_eat,not_eat,avoid,pos,avoid-pos,1,1,1359.1999999999534
sub-039,150,2,FALSE,left,avoid,pos,meat27_crop.jpg,2,15,TRUE,149,1,1739.8645,39,DON'T EAT                                    EAT,1739.1163,1716.9312,1488.3638,right,1,left,left,not_eat,not_eat,avoid,pos,avoid-pos,1,1,748.2000000001863
sub-039,151,3,FALSE,left,approach,pos,cake9_crop.jpg,2,16,TRUE,150,2,1756.9569,39,DON'T EAT                                    EAT,1755.9302,1751.9102,1488.3638,right,2,right,right,eat,eat,approach,pos,approach-pos,1,1,1026.6999999999534
sub-039,152,3,FALSE,left,approach,pos,cake39_crop.jpg,2,16,TRUE,151,2,1758.7288,39,DON'T EAT                                    EAT,1757.9485,1751.9102,1488.3638,right,2,right,right,eat,eat,approach,pos,approach-pos,1,1,780.3000000000466
sub-039,153,3,FALSE,left,approach,pos,cake1_crop.jpg,2,16,TRUE,152,2,1760.602,39,DON'T EAT                                    EAT,1759.967,1751.9102,1488.3638,right,2,right,right,eat,eat,approach,pos,approach-pos,1,1,635
sub-039,154,3,TRUE,left,avoid,pos,meat4_crop.jpg,2,16,TRUE,153,1,1763.25,39,DON'T EAT                                    EAT,1761.9854,1751.9102,1488.3638,right,1,left,left,not_eat,not_eat,approach,pos,approach-pos,1,1,1264.5999999998603
sub-039,155,3,FALSE,left,approach,pos,cake12_crop.jpg,2,16,TRUE,154,2,1765.0066,39,DON'T EAT                                    EAT,1764.0035,1751.9102,1488.3638,right,2,right,right,eat,eat,approach,pos,approach-pos,1,1,1003.0999999998603
sub-039,156,3,FALSE,left,approach,pos,cake21_crop.jpg,2,16,TRUE,155,2,1767.0679,39,DON'T EAT                                    EAT,1766.022,1751.9102,1488.3638,right,2,right,right,eat,eat,approach,pos,approach-pos,1,1,1045.8999999999069
sub-039,157,3,FALSE,left,approach,pos,cake14_crop.jpg,2,16,TRUE,156,2,1768.6097,39,DON'T EAT                                    EAT,1768.0403,1751.9102,1488.3638,right,2,right,right,eat,eat,approach,pos,approach-pos,1,1,569.4000000001397
sub-039,158,3,TRUE,left,avoid,neg,fungus29_crop.jpg,2,16,TRUE,157,1,1770.8822,39,DON'T EAT                                    EAT,1770.0586,1751.9102,1488.3638,right,1,left,left,not_eat,not_eat,approach,pos,approach-pos,1,1,823.5999999998603
sub-039,159,3,FALSE,left,approach,pos,cake37_crop.jpg,2,16,TRUE,158,2,1772.9279,39,DON'T EAT                                    EAT,1772.0764,1751.9102,1488.3638,right,2,right,right,eat,eat,approach,pos,approach-pos,1,1,851.5
sub-039,160,3,FALSE,left,approach,pos,cake2_crop.jpg,2,16,TRUE,159,2,1774.6456,39,DON'T EAT                                    EAT,1774.0948,1751.9102,1488.3638,right,2,right,right,eat,eat,approach,pos,approach-pos,1,1,550.8000000000466
sub-039,161,3,FALSE,right,approach,neg,insect14_crop.jpg,3,17,TRUE,160,2,1875.7694,39,DON'T EAT                                    EAT,1874.3787,1870.3586,1857.2839,left,2,right,right,eat,eat,approach,neg,approach-neg,1,1,1390.6999999999534
sub-039,162,3,TRUE,right,avoid,neg,fungus30_crop.jpg,3,17,TRUE,161,1,1877.6637,39,DON'T EAT                                    EAT,1876.397,1870.3586,1857.2839,left,1,left,left,not_eat,not_eat,approach,neg,approach-neg,1,1,1266.6999999999534
sub-039,163,3,FALSE,right,approach,neg,insect21_crop.jpg,3,17,TRUE,162,2,1879.4275,39,DON'T EAT                                    EAT,1878.4154,1870.3586,1857.2839,left,2,right,right,eat,eat,approach,neg,approach-neg,1,1,1012.0999999998603
sub-039,164,3,FALSE,right,approach,neg,insect7_crop.jpg,3,17,TRUE,163,2,1881.2603,39,DON'T EAT                                    EAT,1880.4337,1870.3586,1857.2839,left,2,right,right,eat,eat,approach,neg,approach-neg,1,1,826.5999999998603
sub-039,165,3,FALSE,right,approach,neg,insect24_crop.jpg,3,17,TRUE,164,2,1883.1273,39,DON'T EAT                                    EAT,1882.4517,1870.3586,1857.2839,left,2,right,right,eat,eat,approach,neg,approach-neg,1,1,675.5999999998603
sub-039,166,3,FALSE,right,approach,neg,insect4_crop.jpg,3,17,TRUE,165,2,1885.126,39,DON'T EAT                                    EAT,1884.4703,1870.3586,1857.2839,left,2,right,right,eat,eat,approach,neg,approach-neg,1,1,655.6999999999534
sub-039,167,3,FALSE,right,approach,neg,insect31_crop.jpg,3,17,TRUE,166,2,1887.2917,39,DON'T EAT                                    EAT,1886.4888,1870.3586,1857.2839,left,2,right,right,eat,eat,approach,neg,approach-neg,1,1,802.8999999999069
sub-039,168,3,FALSE,right,approach,neg,insect30_crop.jpg,3,17,TRUE,167,2,1889.5916,39,DON'T EAT                                    EAT,1888.5066,1870.3586,1857.2839,left,2,right,right,eat,eat,approach,neg,approach-neg,1,1,1085
sub-039,169,3,TRUE,right,avoid,pos,meat24_crop.jpg,3,17,TRUE,168,1,1891.3782,39,DON'T EAT                                    EAT,1890.5254,1870.3586,1857.2839,left,1,left,left,not_eat,not_eat,approach,neg,approach-neg,1,1,852.8000000002794
sub-039,170,3,FALSE,right,approach,neg,insect5_crop.jpg,3,17,TRUE,169,2,1893.3602,39,DON'T EAT                                    EAT,1892.5438,1870.3586,1857.2839,left,2,right,right,eat,eat,approach,neg,approach-neg,1,1,816.4000000003725
sub-039,171,2,FALSE,right,avoid,pos,meat10_crop.jpg,3,18,TRUE,170,1,1910.539,39,DON'T EAT                                    EAT,1909.4575,1905.4375,1857.2839,left,1,left,left,not_eat,not_eat,avoid,pos,avoid-pos,1,1,1081.5
sub-039,172,2,FALSE,right,avoid,pos,meat37_crop.jpg,3,18,TRUE,171,1,1912.2467,39,DON'T EAT                                    EAT,1911.4762,1905.4375,1857.2839,left,1,left,left,not_eat,not_eat,avoid,pos,avoid-pos,1,1,770.5
sub-039,173,2,FALSE,right,avoid,pos,meat5_crop.jpg,3,18,TRUE,172,1,1914.0773,39,DON'T EAT                                    EAT,1913.494,1905.4375,1857.2839,left,1,left,left,not_eat,not_eat,avoid,pos,avoid-pos,1,1,583.2999999998137
sub-039,174,2,FALSE,right,avoid,pos,meat15_crop.jpg,3,18,TRUE,173,1,1916.2855,39,DON'T EAT                                    EAT,1915.5128,1905.4375,1857.2839,left,1,left,left,not_eat,not_eat,avoid,pos,avoid-pos,1,1,772.6999999999534
sub-039,175,2,FALSE,right,avoid,pos,meat19_crop.jpg,3,18,TRUE,174,1,1918.2285,39,DON'T EAT                                    EAT,1917.5311,1905.4375,1857.2839,left,1,left,left,not_eat,not_eat,avoid,pos,avoid-pos,1,1,697.4000000001397
sub-039,176,2,FALSE,right,avoid,pos,meat6_crop.jpg,3,18,TRUE,175,1,1920.1945,39,DON'T EAT                                    EAT,1919.5494,1905.4375,1857.2839,left,1,left,left,not_eat,not_eat,avoid,pos,avoid-pos,1,1,645.0999999998603
sub-039,177,2,TRUE,right,approach,neg,insect2_crop.jpg,3,18,TRUE,176,2,1922.7603,39,DON'T EAT                                    EAT,1921.5679,1905.4375,1857.2839,left,2,right,right,eat,eat,avoid,pos,avoid-pos,1,1,1192.3999999999069
sub-039,178,2,FALSE,right,avoid,pos,meat9_crop.jpg,3,18,TRUE,177,1,1924.6792,39,DON'T EAT                                    EAT,1923.5857,1905.4375,1857.2839,left,1,left,left,not_eat,not_eat,avoid,pos,avoid-pos,1,1,1093.4999999997672
sub-039,179,2,FALSE,right,avoid,pos,meat22_crop.jpg,3,18,TRUE,178,1,1926.2985,39,DON'T EAT                                    EAT,1925.6045,1905.4375,1857.2839,left,1,left,left,not_eat,not_eat,avoid,pos,avoid-pos,1,1,694
sub-039,180,2,TRUE,right,approach,pos,cake35_crop.jpg,3,18,TRUE,179,2,1928.7732,39,DON'T EAT                                    EAT,1927.6229,1905.4375,1857.2839,left,2,right,right,eat,eat,avoid,pos,avoid-pos,1,1,1150.3000000000466
sub-039,181,2,FALSE,left,approach,neg,insect22_crop.jpg,3,19,TRUE,180,2,1945.2908,39,DON'T EAT                                    EAT,1943.8864,1939.8661,1857.2839,left,2,right,right,eat,eat,approach,neg,approach-neg,1,1,1404.3999999999069
sub-039,182,2,FALSE,left,approach,neg,insect29_crop.jpg,3,19,TRUE,181,2,1947.3396,39,DON'T EAT                                    EAT,1945.9048,1939.8661,1857.2839,left,2,right,right,eat,eat,approach,neg,approach-neg,1,1,1434.8000000000466
sub-039,183,2,TRUE,left,avoid,neg,fungus35_crop.jpg,3,19,TRUE,182,1,1949.2972,39,DON'T EAT                                    EAT,1947.9233,1939.8661,1857.2839,left,1,left,left,not_eat,not_eat,approach,neg,approach-neg,1,1,1373.9000000001397
sub-039,184,2,FALSE,left,approach,neg,insect5_crop.jpg,3,19,TRUE,183,2,1951.1392,39,DON'T EAT                                    EAT,1949.9414,1939.8661,1857.2839,left,2,right,right,eat,eat,approach,neg,approach-neg,1,1,1197.8000000002794
sub-039,185,2,TRUE,left,avoid,pos,meat23_crop.jpg,3,19,TRUE,184,1,1953.3057,39,DON'T EAT                                    EAT,1951.9597,1939.8661,1857.2839,left,1,left,left,not_eat,not_eat,approach,neg,approach-neg,1,1,1345.9999999997672
sub-039,186,2,FALSE,left,approach,neg,insect15_crop.jpg,3,19,TRUE,185,2,1955.123,39,DON'T EAT                                    EAT,1953.9775,1939.8661,1857.2839,left,2,right,right,eat,eat,approach,neg,approach-neg,1,1,1145.5
sub-039,187,2,FALSE,left,approach,neg,insect8_crop.jpg,3,19,TRUE,186,2,1956.756,39,DON'T EAT                                    EAT,1955.9965,1939.8661,1857.2839,left,2,right,right,eat,eat,approach,neg,approach-neg,1,1,759.5
sub-039,188,2,FALSE,left,approach,neg,insect25_crop.jpg,3,19,TRUE,187,2,1958.5527,39,DON'T EAT                                    EAT,1958.015,1939.8661,1857.2839,left,2,right,right,eat,eat,approach,neg,approach-neg,1,1,537.6999999999534
sub-039,189,2,FALSE,left,approach,neg,insect1_crop.jpg,3,19,TRUE,188,2,1960.5918,39,DON'T EAT                                    EAT,1960.0332,1939.8661,1857.2839,left,2,right,right,eat,eat,approach,neg,approach-neg,1,1,558.5999999996275
sub-039,190,2,FALSE,left,approach,neg,insect26_crop.jpg,3,19,TRUE,189,2,1962.6522,39,DON'T EAT                                    EAT,1962.0515,1939.8661,1857.2839,left,2,right,right,eat,eat,approach,neg,approach-neg,1,1,600.6999999999534
sub-039,191,1,FALSE,right,avoid,neg,fungus4_crop.jpg,3,20,TRUE,190,1,1982.087,39,DON'T EAT                                    EAT,1980.9005,1976.8804,1857.2839,left,1,left,left,not_eat,not_eat,avoid,neg,avoid-neg,1,1,1186.5
sub-039,192,1,FALSE,right,avoid,neg,fungus20_crop.jpg,3,20,TRUE,191,1,1984.3269,39,DON'T EAT                                    EAT,1982.9187,1976.8804,1857.2839,left,1,left,left,not_eat,not_eat,avoid,neg,avoid-neg,1,1,1408.1999999999534
sub-039,193,1,TRUE,right,approach,pos,cake33_crop.jpg,3,20,TRUE,192,2,1986.3937,39,DON'T EAT                                    EAT,1984.937,1976.8804,1857.2839,left,2,right,right,eat,eat,avoid,neg,avoid-neg,1,1,1456.7000000001863
sub-039,194,1,TRUE,right,approach,neg,insect32_crop.jpg,3,20,TRUE,193,2,1987.9445,39,DON'T EAT                                    EAT,1986.9556,1976.8804,1857.2839,left,2,right,right,eat,eat,avoid,neg,avoid-neg,1,1,988.8999999999069
sub-039,195,1,FALSE,right,avoid,neg,fungus23_crop.jpg,3,20,TRUE,194,1,1990.0393,39,DON'T EAT                                    EAT,1988.9739,1976.8804,1857.2839,left,1,left,left,not_eat,not_eat,avoid,neg,avoid-neg,1,1,1065.3999999999069
sub-039,196,1,FALSE,right,avoid,neg,fungus21_crop.jpg,3,20,TRUE,195,1,1991.6593,39,DON'T EAT                                    EAT,1990.9922,1976.8804,1857.2839,left,1,left,left,not_eat,not_eat,avoid,neg,avoid-neg,1,1,667.1000000000931
sub-039,197,1,FALSE,right,avoid,neg,fungus2_crop.jpg,3,20,TRUE,196,1,1993.8632,39,DON'T EAT                                    EAT,1993.0105,1976.8804,1857.2839,left,1,left,left,not_eat,not_eat,avoid,neg,avoid-neg,1,1,852.6999999999534
sub-039,198,1,FALSE,right,avoid,neg,fungus33_crop.jpg,3,20,TRUE,197,1,1995.6193,39,DON'T EAT                                    EAT,1995.0288,1976.8804,1857.2839,left,1,left,left,not_eat,not_eat,avoid,neg,avoid-neg,1,1,590.5
sub-039,199,1,FALSE,right,avoid,neg,fungus13_crop.jpg,3,20,TRUE,198,1,1997.9735,39,DON'T EAT                                    EAT,1997.0471,1976.8804,1857.2839,left,1,left,left,not_eat,not_eat,avoid,neg,avoid-neg,1,1,926.3999999999069
sub-039,200,1,FALSE,right,avoid,neg,fungus15_crop.jpg,3,20,TRUE,199,1,1999.7681,39,DON'T EAT                                    EAT,1999.0656,1976.8804,1857.2839,left,1,left,left,not_eat,not_eat,avoid,neg,avoid-neg,1,1,702.5000000002328
sub-039,201,1,FALSE,right,avoid,pos,meat4_crop.jpg,3,21,TRUE,200,1,2020.4039,39,DON'T EAT                                    EAT,2018.6819,2014.6613,1857.2839,left,1,left,left,not_eat,not_eat,avoid,pos,avoid-pos,1,1,1721.9999999997672
sub-039,202,1,FALSE,right,avoid,pos,meat17_crop.jpg,3,21,TRUE,201,1,2021.7584,39,DON'T EAT                                    EAT,2020.7009,2014.6613,1857.2839,left,1,left,left,not_eat,not_eat,avoid,pos,avoid-pos,1,1,1057.4999999997672
sub-039,203,1,FALSE,right,avoid,pos,meat28_crop.jpg,3,21,TRUE,202,1,2023.7239,39,DON'T EAT                                    EAT,2022.7184,2014.6613,1857.2839,left,1,left,left,not_eat,not_eat,avoid,pos,avoid-pos,1,1,1005.5
sub-039,204,1,FALSE,right,avoid,pos,meat14_crop.jpg,3,21,TRUE,203,1,2025.7937,39,DON'T EAT                                    EAT,2024.7369,2014.6613,1857.2839,left,1,left,left,not_eat,not_eat,avoid,pos,avoid-pos,1,1,1056.7999999998137
sub-039,205,1,TRUE,right,approach,pos,cake22_crop.jpg,3,21,TRUE,204,2,2027.8628,39,DON'T EAT                                    EAT,2026.7552,2014.6613,1857.2839,left,2,right,right,eat,eat,avoid,pos,avoid-pos,1,1,1107.6000000000931
sub-039,206,1,FALSE,right,avoid,pos,meat21_crop.jpg,3,21,TRUE,205,1,2029.4908,39,DON'T EAT                                    EAT,2028.7732,2014.6613,1857.2839,left,1,left,left,not_eat,not_eat,avoid,pos,avoid-pos,1,1,717.5999999998603
sub-039,207,1,FALSE,right,avoid,pos,meat26_crop.jpg,3,21,TRUE,206,1,2031.8805,39,DON'T EAT                                    EAT,2030.7919,2014.6613,1857.2839,left,1,left,left,not_eat,not_eat,avoid,pos,avoid-pos,1,1,1088.6000000000931
sub-039,208,1,TRUE,right,approach,neg,insect13_crop.jpg,3,21,TRUE,207,2,2033.7921,39,DON'T EAT                                    EAT,2032.8103,2014.6613,1857.2839,left,2,right,right,eat,eat,avoid,pos,avoid-pos,1,1,981.7999999998137
sub-039,209,1,FALSE,right,avoid,pos,meat1_crop.jpg,3,21,TRUE,208,1,2035.9766,39,DON'T EAT                                    EAT,2034.8285,2014.6613,1857.2839,left,1,left,left,not_eat,not_eat,avoid,pos,avoid-pos,1,1,1148.0999999998603
sub-039,210,1,FALSE,right,avoid,pos,meat34_crop.jpg,3,21,TRUE,209,1,2038.018,39,DON'T EAT                                    EAT,2036.847,2014.6613,1857.2839,left,1,left,left,not_eat,not_eat,avoid,pos,avoid-pos,1,1,1171
sub-039,211,3,FALSE,right,approach,pos,cake12_crop.jpg,3,22,TRUE,210,2,2056.438,39,DON'T EAT                                    EAT,2055.4458,2051.4255,1857.2839,left,2,right,right,eat,eat,approach,pos,approach-pos,1,1,992.1999999999534
sub-039,212,3,FALSE,right,approach,pos,cake8_crop.jpg,3,22,TRUE,211,2,2058.1733,39,DON'T EAT                                    EAT,2057.464,2051.4255,1857.2839,left,2,right,right,eat,eat,approach,pos,approach-pos,1,1,709.2999999998137
sub-039,213,3,FALSE,right,approach,pos,cake14_crop.jpg,3,22,TRUE,212,2,2060.1472,39,DON'T EAT                                    EAT,2059.4827,2051.4255,1857.2839,left,2,right,right,eat,eat,approach,pos,approach-pos,1,1,664.5
sub-039,214,3,FALSE,right,approach,pos,cake10_crop.jpg,3,22,TRUE,213,2,2062.0623,39,DON'T EAT                                    EAT,2061.5005,2051.4255,1857.2839,left,2,right,right,eat,eat,approach,pos,approach-pos,1,1,561.8000000000466
sub-039,215,3,FALSE,right,approach,pos,cake24_crop.jpg,3,22,TRUE,214,2,2064.127,39,DON'T EAT                                    EAT,2063.5186,2051.4255,1857.2839,left,2,right,right,eat,eat,approach,pos,approach-pos,1,1,608.4000000001397
sub-039,216,3,FALSE,right,approach,pos,cake23_crop.jpg,3,22,TRUE,215,2,2066.2537,39,DON'T EAT                                    EAT,2065.537,2051.4255,1857.2839,left,2,right,right,eat,eat,approach,pos,approach-pos,1,1,716.7000000004191
sub-039,217,3,FALSE,right,approach,pos,cake25_crop.jpg,3,22,TRUE,216,2,2068.1174,39,DON'T EAT                                    EAT,2067.556,2051.4255,1857.2839,left,2,right,right,eat,eat,approach,pos,approach-pos,1,1,561.4000000001397
sub-039,218,3,FALSE,right,approach,pos,cake40_crop.jpg,3,22,TRUE,217,2,2070.1118,39,DON'T EAT                                    EAT,2069.5742,2051.4255,1857.2839,left,2,right,right,eat,eat,approach,pos,approach-pos,1,1,537.6000000000931
sub-039,219,3,TRUE,right,avoid,neg,fungus7_crop.jpg,3,22,TRUE,218,1,2072.4785,39,DON'T EAT                                    EAT,2071.5925,2051.4255,1857.2839,left,1,left,left,not_eat,not_eat,approach,pos,approach-pos,1,1,886
sub-039,220,3,TRUE,right,avoid,pos,meat33_crop.jpg,3,22,TRUE,219,1,2074.5745,39,DON'T EAT                                    EAT,2073.6104,2051.4255,1857.2839,left,1,left,left,not_eat,not_eat,approach,pos,approach-pos,1,1,964.1000000000931
sub-039,221,2,FALSE,right,approach,pos,cake32_crop.jpg,3,23,TRUE,220,2,2092.7502,39,DON'T EAT                                    EAT,2091.4758,2087.4556,1857.2839,left,2,right,right,eat,eat,approach,pos,approach-pos,1,1,1274.399999999674
sub-039,222,2,FALSE,right,approach,pos,cake34_crop.jpg,3,23,TRUE,221,2,2094.451,39,DON'T EAT                                    EAT,2093.4937,2087.4556,1857.2839,left,2,right,right,eat,eat,approach,pos,approach-pos,1,1,957.3000000000466
sub-039,223,2,FALSE,right,approach,pos,cake26_crop.jpg,3,23,TRUE,222,2,2096.239,39,DON'T EAT                                    EAT,2095.5125,2087.4556,1857.2839,left,2,right,right,eat,eat,approach,pos,approach-pos,1,1,726.5000000002328
sub-039,224,2,TRUE,right,avoid,pos,meat8_crop.jpg,3,23,TRUE,223,1,2098.404,39,DON'T EAT                                    EAT,2097.5308,2087.4556,1857.2839,left,1,left,left,not_eat,not_eat,approach,pos,approach-pos,1,1,873.2000000001863
sub-039,225,2,FALSE,right,approach,pos,cake39_crop.jpg,3,23,TRUE,224,2,2100.6172,39,DON'T EAT                                    EAT,2099.549,2087.4556,1857.2839,left,2,right,right,eat,eat,approach,pos,approach-pos,1,1,1068.2000000001863
sub-039,226,2,FALSE,right,approach,pos,cake21_crop.jpg,3,23,TRUE,225,2,2102.6968,39,DON'T EAT                                    EAT,2101.5674,2087.4556,1857.2839,left,2,right,right,eat,eat,approach,pos,approach-pos,1,1,1129.4000000003725
sub-039,227,2,TRUE,right,avoid,neg,fungus37_crop.jpg,3,23,TRUE,226,1,2104.7087,39,DON'T EAT                                    EAT,2103.5852,2087.4556,1857.2839,left,1,left,left,not_eat,not_eat,approach,pos,approach-pos,1,1,1123.5
sub-039,228,2,FALSE,right,approach,pos,cake20_crop.jpg,3,23,TRUE,227,2,2106.5977,39,DON'T EAT                                    EAT,2105.6035,2087.4556,1857.2839,left,2,right,right,eat,eat,approach,pos,approach-pos,1,1,994.1999999997206
sub-039,229,2,FALSE,right,approach,pos,cake18_crop.jpg,3,23,TRUE,228,2,2108.4836,39,DON'T EAT                                    EAT,2107.622,2087.4556,1857.2839,left,2,right,right,eat,eat,approach,pos,approach-pos,1,1,861.6000000000931
sub-039,230,2,FALSE,right,approach,pos,cake6_crop.jpg,3,23,TRUE,229,2,2110.5369,39,DON'T EAT                                    EAT,2109.6409,2087.4556,1857.2839,left,2,right,right,eat,eat,approach,pos,approach-pos,1,1,896
sub-039,231,1,TRUE,left,approach,pos,cake40_crop.jpg,3,24,TRUE,230,2,2129.6023,39,DON'T EAT                                    EAT,2127.906,2123.886,1857.2839,left,2,right,right,eat,eat,avoid,pos,avoid-pos,1,1,1696.2999999998137
sub-039,232,1,FALSE,left,avoid,pos,meat14_crop.jpg,3,24,TRUE,231,1,2130.82,39,DON'T EAT                                    EAT,2129.9243,2123.886,1857.2839,left,1,left,left,not_eat,not_eat,avoid,pos,avoid-pos,1,1,895.6999999997206
sub-039,233,1,FALSE,left,avoid,pos,meat37_crop.jpg,3,24,TRUE,232,1,2132.7854,39,DON'T EAT                                    EAT,2131.9426,2123.886,1857.2839,left,1,left,left,not_eat,not_eat,avoid,pos,avoid-pos,1,1,842.8000000007451
sub-039,234,1,FALSE,left,avoid,pos,meat11_crop.jpg,3,24,TRUE,233,1,2134.5928,39,DON'T EAT                                    EAT,2133.961,2123.886,1857.2839,left,1,left,left,not_eat,not_eat,avoid,pos,avoid-pos,1,1,631.7999999998137
sub-039,235,1,FALSE,left,avoid,pos,meat22_crop.jpg,3,24,TRUE,234,1,2136.5054,39,DON'T EAT                                    EAT,2135.9788,2123.886,1857.2839,left,1,left,left,not_eat,not_eat,avoid,pos,avoid-pos,1,1,526.6000000000931
sub-039,236,1,FALSE,left,avoid,pos,meat8_crop.jpg,3,24,TRUE,235,1,2138.5562,39,DON'T EAT                                    EAT,2137.9976,2123.886,1857.2839,left,1,left,left,not_eat,not_eat,avoid,pos,avoid-pos,1,1,558.6000000000931
sub-039,237,1,FALSE,left,avoid,pos,meat38_crop.jpg,3,24,TRUE,236,1,2140.5344,39,DON'T EAT                                    EAT,2140.016,2123.886,1857.2839,left,1,left,left,not_eat,not_eat,avoid,pos,avoid-pos,1,1,518.3999999999069
sub-039,238,1,TRUE,left,approach,neg,insect13_crop.jpg,3,24,TRUE,237,2,2143.1545,39,DON'T EAT                                    EAT,2142.0344,2123.886,1857.2839,left,2,right,right,eat,eat,avoid,pos,avoid-pos,1,1,1120.1000000000931
sub-039,239,1,FALSE,left,avoid,pos,meat17_crop.jpg,3,24,TRUE,238,1,2144.834,39,DON'T EAT                                    EAT,2144.0527,2123.886,1857.2839,left,1,left,left,not_eat,not_eat,avoid,pos,avoid-pos,1,1,781.2999999998137
sub-039,240,1,FALSE,left,avoid,pos,meat2_crop.jpg,3,24,TRUE,239,1,2146.726,39,DON'T EAT                                    EAT,2146.071,2123.886,1857.2839,left,1,left,left,not_eat,not_eat,avoid,pos,avoid-pos,1,1,655
sub-039,241,3,FALSE,right,avoid,neg,fungus25_crop.jpg,4,25,TRUE,240,1,2243.0906,39,DON'T EAT                                    EAT,2241.6838,2237.6638,2225.999,right,1,left,left,not_eat,not_eat,avoid,neg,avoid-neg,1,1,1406.8000000002794
sub-039,242,3,FALSE,right,avoid,neg,fungus3_crop.jpg,4,25,TRUE,241,1,2244.646,39,DON'T EAT                                    EAT,2243.7014,2237.6638,2225.999,right,1,left,left,not_eat,not_eat,avoid,neg,avoid-neg,1,1,944.6000000000931
sub-039,243,3,FALSE,right,avoid,neg,fungus8_crop.jpg,4,25,TRUE,242,1,2246.733,39,DON'T EAT                                    EAT,2245.7205,2237.6638,2225.999,right,1,left,left,not_eat,not_eat,avoid,neg,avoid-neg,1,1,1012.5
sub-039,244,3,FALSE,right,avoid,neg,fungus24_crop.jpg,4,25,TRUE,243,1,2248.5613,39,DON'T EAT                                    EAT,2247.7388,2237.6638,2225.999,right,1,left,left,not_eat,not_eat,avoid,neg,avoid-neg,1,1,822.4999999995343
sub-039,245,3,FALSE,right,avoid,neg,fungus5_crop.jpg,4,25,TRUE,244,1,2250.453,39,DON'T EAT                                    EAT,2249.757,2237.6638,2225.999,right,1,left,left,not_eat,not_eat,avoid,neg,avoid-neg,1,1,696
sub-039,246,3,FALSE,right,avoid,neg,fungus39_crop.jpg,4,25,TRUE,245,1,2252.7166,39,DON'T EAT                                    EAT,2251.7756,2237.6638,2225.999,right,1,left,left,not_eat,not_eat,avoid,neg,avoid-neg,1,1,941
sub-039,247,3,FALSE,right,avoid,neg,fungus18_crop.jpg,4,25,TRUE,246,1,2254.5168,39,DON'T EAT                                    EAT,2253.7935,2237.6638,2225.999,right,1,left,left,not_eat,not_eat,avoid,neg,avoid-neg,1,1,723.2999999998137
sub-039,248,3,FALSE,right,avoid,neg,fungus1_crop.jpg,4,25,TRUE,247,1,2256.5347,39,DON'T EAT                                    EAT,2255.8123,2237.6638,2225.999,right,1,left,left,not_eat,not_eat,avoid,neg,avoid-neg,1,1,722.3999999999069
sub-039,249,3,TRUE,right,approach,neg,insect40_crop.jpg,4,25,TRUE,248,2,2258.926,39,DON'T EAT                                    EAT,2257.8306,2237.6638,2225.999,right,2,right,right,eat,eat,avoid,neg,avoid-neg,1,1,1095.4000000003725
sub-039,250,3,TRUE,right,approach,pos,cake5_crop.jpg,4,25,TRUE,249,2,2260.759,39,DON'T EAT                                    EAT,2259.8489,2237.6638,2225.999,right,2,right,right,eat,eat,avoid,neg,avoid-neg,1,1,910.1000000000931
sub-039,251,2,FALSE,right,approach,neg,insect1_crop.jpg,4,26,TRUE,250,2,2278.9302,39,DON'T EAT                                    EAT,2277.847,2273.8267,2225.999,right,2,right,right,eat,eat,approach,neg,approach-neg,1,1,1083.1999999997206
sub-039,252,2,FALSE,right,approach,neg,insect8_crop.jpg,4,26,TRUE,251,2,2280.4878,39,DON'T EAT                                    EAT,2279.8655,2273.8267,2225.999,right,2,right,right,eat,eat,approach,neg,approach-neg,1,1,622.2999999998137
sub-039,253,2,FALSE,right,approach,neg,insect22_crop.jpg,4,26,TRUE,252,2,2282.3796,39,DON'T EAT                                    EAT,2281.8835,2273.8267,2225.999,right,2,right,right,eat,eat,approach,neg,approach-neg,1,1,496.10000000009313
sub-039,254,2,TRUE,right,avoid,pos,meat40_crop.jpg,4,26,TRUE,253,1,2284.754,39,DON'T EAT                                    EAT,2283.9016,2273.8267,2225.999,right,1,left,left,not_eat,not_eat,approach,neg,approach-neg,1,1,852.3999999999069
sub-039,255,2,FALSE,right,approach,neg,insect3_crop.jpg,4,26,TRUE,254,2,2286.784,39,DON'T EAT                                    EAT,2285.9204,2273.8267,2225.999,right,2,right,right,eat,eat,approach,neg,approach-neg,1,1,863.6000000000931
sub-039,256,2,FALSE,right,approach,neg,insect38_crop.jpg,4,26,TRUE,255,2,2288.4539,39,DON'T EAT                                    EAT,2287.939,2273.8267,2225.999,right,2,right,right,eat,eat,approach,neg,approach-neg,1,1,514.8999999999069
sub-039,257,2,FALSE,right,approach,neg,insect26_crop.jpg,4,26,TRUE,256,2,2290.546,39,DON'T EAT                                    EAT,2289.957,2273.8267,2225.999,right,2,right,right,eat,eat,approach,neg,approach-neg,1,1,589
sub-039,258,2,FALSE,right,approach,neg,insect29_crop.jpg,4,26,TRUE,257,2,2292.5007,39,DON'T EAT                                    EAT,2291.9756,2273.8267,2225.999,right,2,right,right,eat,eat,approach,neg,approach-neg,1,1,525.1000000000931
sub-039,259,2,TRUE,right,avoid,neg,fungus22_crop.jpg,4,26,TRUE,258,1,2294.7832,39,DON'T EAT                                    EAT,2293.994,2273.8267,2225.999,right,1,left,left,not_eat,not_eat,approach,neg,approach-neg,1,1,789.1999999997206
sub-039,260,2,FALSE,right,approach,neg,insect18_crop.jpg,4,26,TRUE,259,2,2296.862,39,DON'T EAT                                    EAT,2296.0122,2273.8267,2225.999,right,2,right,right,eat,eat,approach,neg,approach-neg,1,1,849.7999999998137
sub-039,261,0,FALSE,left,avoid,neg,fungus5_crop.jpg,4,27,TRUE,260,1,2315.9666,39,DON'T EAT                                    EAT,2314.9944,2310.9746,2225.999,right,1,left,left,not_eat,not_eat,avoid,neg,avoid-neg,1,1,972.2000000001863
sub-039,262,0,TRUE,left,approach,neg,insect33_crop.jpg,4,27,TRUE,261,2,2318.0498,39,DON'T EAT                                    EAT,2317.0127,2310.9746,2225.999,right,2,right,right,eat,eat,avoid,neg,avoid-neg,1,1,1037.0999999996275
sub-039,263,0,TRUE,left,approach,pos,cake25_crop.jpg,4,27,TRUE,262,2,2319.751,39,DON'T EAT                                    EAT,2319.0315,2310.9746,2225.999,right,2,right,right,eat,eat,avoid,neg,avoid-neg,1,1,719.5
sub-039,264,0,FALSE,left,avoid,neg,fungus31_crop.jpg,4,27,TRUE,263,1,2322.074,39,DON'T EAT                                    EAT,2321.0498,2310.9746,2225.999,right,1,left,left,not_eat,not_eat,avoid,neg,avoid-neg,1,1,1024.2000000001863
sub-039,265,0,FALSE,left,avoid,neg,fungus39_crop.jpg,4,27,TRUE,264,1,2323.9155,39,DON'T EAT                                    EAT,2323.068,2310.9746,2225.999,right,1,left,left,not_eat,not_eat,avoid,neg,avoid-neg,1,1,847.5
sub-039,266,0,FALSE,left,avoid,neg,fungus28_crop.jpg,4,27,TRUE,265,1,2325.657,39,DON'T EAT                                    EAT,2325.0864,2310.9746,2225.999,right,1,left,left,not_eat,not_eat,avoid,neg,avoid-neg,1,1,570.5999999996275
sub-039,267,0,FALSE,left,avoid,neg,fungus2_crop.jpg,4,27,TRUE,266,1,2327.789,39,DON'T EAT                                    EAT,2327.1047,2310.9746,2225.999,right,1,left,left,not_eat,not_eat,avoid,neg,avoid-neg,1,1,684.3000000002794
sub-039,268,0,FALSE,left,avoid,neg,fungus17_crop.jpg,4,27,TRUE,267,1,2329.8086,39,DON'T EAT                                    EAT,2329.123,2310.9746,2225.999,right,1,left,left,not_eat,not_eat,avoid,neg,avoid-neg,1,1,685.5999999996275
sub-039,269,0,FALSE,left,avoid,neg,fungus13_crop.jpg,4,27,TRUE,268,1,2331.89,39,DON'T EAT                                    EAT,2331.1414,2310.9746,2225.999,right,1,left,left,not_eat,not_eat,avoid,neg,avoid-neg,1,1,748.6000000000931
sub-039,270,0,FALSE,left,avoid,neg,fungus21_crop.jpg,4,27,TRUE,269,1,2333.9126,39,DON'T EAT                                    EAT,2333.16,2310.9746,2225.999,right,1,left,left,not_eat,not_eat,avoid,neg,avoid-neg,1,1,752.6000000000931
sub-039,271,2,FALSE,left,approach,pos,cake36_crop.jpg,4,28,TRUE,270,2,2351.126,39,DON'T EAT                                    EAT,2349.8237,2345.8035,2225.999,right,2,right,right,eat,eat,approach,pos,approach-pos,1,1,1302.3000000002794
sub-039,272,2,FALSE,left,approach,pos,cake6_crop.jpg,4,28,TRUE,271,2,2352.4426,39,DON'T EAT                                    EAT,2351.8418,2345.8035,2225.999,right,2,right,right,eat,eat,approach,pos,approach-pos,1,1,600.7999999993481
sub-039,273,2,TRUE,left,avoid,neg,fungus20_crop.jpg,4,28,TRUE,272,1,2354.9607,39,DON'T EAT                                    EAT,2353.8599,2345.8035,2225.999,right,1,left,left,not_eat,not_eat,approach,pos,approach-pos,1,1,1100.8000000002794
sub-039,274,2,FALSE,left,approach,pos,cake5_crop.jpg,4,28,TRUE,273,2,2356.9888,39,DON'T EAT                                    EAT,2355.8787,2345.8035,2225.999,right,2,right,right,eat,eat,approach,pos,approach-pos,1,1,1110.1000000000931
sub-039,275,2,FALSE,left,approach,pos,cake27_crop.jpg,4,28,TRUE,274,2,2358.7688,39,DON'T EAT                                    EAT,2357.897,2345.8035,2225.999,right,2,right,right,eat,eat,approach,pos,approach-pos,1,1,871.7999999998137
sub-039,276,2,FALSE,left,approach,pos,cake7_crop.jpg,4,28,TRUE,275,2,2360.9685,39,DON'T EAT                                    EAT,2359.9153,2345.8035,2225.999,right,2,right,right,eat,eat,approach,pos,approach-pos,1,1,1053.1999999997206
sub-039,277,2,FALSE,left,approach,pos,cake13_crop.jpg,4,28,TRUE,276,2,2362.6936,39,DON'T EAT                                    EAT,2361.9336,2345.8035,2225.999,right,2,right,right,eat,eat,approach,pos,approach-pos,1,1,760.0000000004657
sub-039,278,2,FALSE,left,approach,pos,cake23_crop.jpg,4,28,TRUE,277,2,2364.7012,39,DON'T EAT                                    EAT,2363.9514,2345.8035,2225.999,right,2,right,right,eat,eat,approach,pos,approach-pos,1,1,749.8000000002794
sub-039,279,2,TRUE,left,avoid,pos,meat6_crop.jpg,4,28,TRUE,278,1,2367.0042,39,DON'T EAT                                    EAT,2365.9705,2345.8035,2225.999,right,1,left,left,not_eat,not_eat,approach,pos,approach-pos,1,1,1033.6999999997206
sub-039,280,2,FALSE,left,approach,pos,cake35_crop.jpg,4,28,TRUE,279,2,2369.3706,39,DON'T EAT                                    EAT,2367.9888,2345.8035,2225.999,right,2,right,right,eat,eat,approach,pos,approach-pos,1,1,1381.7999999998137
sub-039,281,0,FALSE,right,approach,neg,insect15_crop.jpg,4,29,TRUE,280,2,2389.086,39,DON'T EAT                                    EAT,2387.9888,2383.9849,2225.999,right,2,right,right,eat,eat,approach,neg,approach-neg,1,1,1097.1999999997206
sub-039,282,0,FALSE,right,approach,neg,insect17_crop.jpg,4,29,TRUE,281,2,2390.5437,39,DON'T EAT                                    EAT,2390.007,2383.9849,2225.999,right,2,right,right,eat,eat,approach,neg,approach-neg,1,1,536.7000000001863
sub-039,283,0,FALSE,right,approach,neg,insect12_crop.jpg,4,29,TRUE,282,2,2392.4355,39,DON'T EAT                                    EAT,2392.0254,2383.9849,2225.999,right,2,right,right,eat,eat,approach,neg,approach-neg,1,1,410.10000000009313
sub-039,284,0,FALSE,right,approach,neg,insect35_crop.jpg,4,29,TRUE,283,2,2394.5176,39,DON'T EAT                                    EAT,2394.0432,2383.9849,2225.999,right,2,right,right,eat,eat,approach,neg,approach-neg,1,1,474.39999999990687
sub-039,285,0,FALSE,right,approach,neg,insect39_crop.jpg,4,29,TRUE,284,2,2396.4934,39,DON'T EAT                                    EAT,2396.062,2383.9849,2225.999,right,2,right,right,eat,eat,approach,neg,approach-neg,1,1,431.39999999990687
sub-039,286,0,FALSE,right,approach,neg,insect33_crop.jpg,4,29,TRUE,285,2,2398.7368,39,DON'T EAT                                    EAT,2398.0803,2383.9849,2225.999,right,2,right,right,eat,eat,approach,neg,approach-neg,1,1,656.5
sub-039,287,0,TRUE,right,avoid,neg,fungus19_crop.jpg,4,29,TRUE,286,1,2400.9863,39,DON'T EAT                                    EAT,2400.0986,2383.9849,2225.999,right,1,left,left,not_eat,not_eat,approach,neg,approach-neg,1,1,887.7000000001863
sub-039,288,0,FALSE,right,approach,neg,insect27_crop.jpg,4,29,TRUE,287,2,2403.0142,39,DON'T EAT                                    EAT,2402.1172,2383.9849,2225.999,right,2,right,right,eat,eat,approach,neg,approach-neg,1,1,897
sub-039,289,0,FALSE,right,approach,neg,insect25_crop.jpg,4,29,TRUE,288,2,2404.6624,39,DON'T EAT                                    EAT,2404.1353,2383.9849,2225.999,right,2,right,right,eat,eat,approach,neg,approach-neg,1,1,527.1000000005588
sub-039,290,0,TRUE,right,avoid,pos,meat31_crop.jpg,4,29,TRUE,289,1,2407.102,39,DON'T EAT                                    EAT,2406.1538,2383.9849,2225.999,right,1,left,left,not_eat,not_eat,approach,neg,approach-neg,1,1,948.2000000001863
sub-039,291,0,TRUE,right,approach,neg,insect6_crop.jpg,4,30,TRUE,290,2,2423.5505,39,DON'T EAT                                    EAT,2422.4006,2418.3806,2225.999,right,2,right,right,eat,eat,avoid,pos,avoid-pos,1,1,1149.8999999999069
sub-039,292,0,FALSE,right,avoid,pos,meat32_crop.jpg,4,30,TRUE,291,1,2425.37,39,DON'T EAT                                    EAT,2424.419,2418.3806,2225.999,right,1,left,left,not_eat,not_eat,avoid,pos,avoid-pos,1,1,951
sub-039,293,0,TRUE,right,approach,pos,cake15_crop.jpg,4,30,TRUE,292,2,2427.3005,39,DON'T EAT                                    EAT,2426.437,2418.3806,2225.999,right,2,right,right,eat,eat,avoid,pos,avoid-pos,1,1,863.5
sub-039,294,0,FALSE,right,avoid,pos,meat30_crop.jpg,4,30,TRUE,293,1,2429.1675,39,DON'T EAT                                    EAT,2428.4556,2418.3806,2225.999,right,1,left,left,not_eat,not_eat,avoid,pos,avoid-pos,1,1,711.9000000003725
sub-039,295,0,FALSE,right,avoid,pos,meat2_crop.jpg,4,30,TRUE,294,1,2431.0974,39,DON'T EAT                                    EAT,2430.474,2418.3806,2225.999,right,1,left,left,not_eat,not_eat,avoid,pos,avoid-pos,1,1,623.3999999999069
sub-039,296,0,FALSE,right,avoid,pos,meat18_crop.jpg,4,30,TRUE,295,1,2433.1897,39,DON'T EAT                                    EAT,2432.4924,2418.3806,2225.999,right,1,left,left,not_eat,not_eat,avoid,pos,avoid-pos,1,1,697.2999999998137
sub-039,297,0,FALSE,right,avoid,pos,meat27_crop.jpg,4,30,TRUE,296,1,2435.112,39,DON'T EAT                                    EAT,2434.5103,2418.3806,2225.999,right,1,left,left,not_eat,not_eat,avoid,pos,avoid-pos,1,1,601.7000000001863
sub-039,298,0,FALSE,right,avoid,pos,meat11_crop.jpg,4,30,TRUE,297,1,2437.1729,39,DON'T EAT                                    EAT,2436.529,2418.3806,2225.999,right,1,left,left,not_eat,not_eat,avoid,pos,avoid-pos,1,1,643.8999999999069
sub-039,299,0,FALSE,right,avoid,pos,meat25_crop.jpg,4,30,TRUE,298,1,2439.2583,39,DON'T EAT                                    EAT,2438.5469,2418.3806,2225.999,right,1,left,left,not_eat,not_eat,avoid,pos,avoid-pos,1,1,711.3999999999069
sub-039,300,0,FALSE,right,avoid,pos,meat23_crop.jpg,4,30,TRUE,299,1,2441.2825,39,DON'T EAT                                    EAT,2440.5657,2418.3806,2225.999,right,1,left,left,not_eat,not_eat,avoid,pos,avoid-pos,1,1,716.7999999998137
sub-039,301,1,FALSE,left,approach,pos,cake32_crop.jpg,4,31,TRUE,300,2,2460.8618,39,DON'T EAT                                    EAT,2459.6482,2455.6277,2225.999,right,2,right,right,eat,eat,approach,pos,approach-pos,1,1,1213.6000000000931
sub-039,302,1,FALSE,left,approach,pos,cake16_crop.jpg,4,31,TRUE,301,2,2462.299,39,DON'T EAT                                    EAT,2461.6667,2455.6277,2225.999,right,2,right,right,eat,eat,approach,pos,approach-pos,1,1,632.2999999998137
sub-039,303,1,TRUE,left,avoid,pos,meat28_crop.jpg,4,31,TRUE,302,1,2464.527,39,DON'T EAT                                    EAT,2463.6843,2455.6277,2225.999,right,1,left,left,not_eat,not_eat,approach,pos,approach-pos,1,1,842.7000000001863
sub-039,304,1,FALSE,left,approach,pos,cake33_crop.jpg,4,31,TRUE,303,2,2466.5479,39,DON'T EAT                                    EAT,2465.7031,2455.6277,2225.999,right,2,right,right,eat,eat,approach,pos,approach-pos,1,1,844.7999999998137
sub-039,305,1,FALSE,left,approach,pos,cake22_crop.jpg,4,31,TRUE,304,2,2468.335,39,DON'T EAT                                    EAT,2467.7217,2455.6277,2225.999,right,2,right,right,eat,eat,approach,pos,approach-pos,1,1,613.2999999998137
sub-039,306,1,FALSE,left,approach,pos,cake4_crop.jpg,4,31,TRUE,305,2,2470.6155,39,DON'T EAT                                    EAT,2469.7397,2455.6277,2225.999,right,2,right,right,eat,eat,approach,pos,approach-pos,1,1,875.7999999998137
sub-039,307,1,FALSE,left,approach,pos,cake30_crop.jpg,4,31,TRUE,306,2,2472.538,39,DON'T EAT                                    EAT,2471.7583,2455.6277,2225.999,right,2,right,right,eat,eat,approach,pos,approach-pos,1,1,779.7000000001863
sub-039,308,1,TRUE,left,avoid,neg,fungus3_crop.jpg,4,31,TRUE,307,1,2474.6208,39,DON'T EAT                                    EAT,2473.7761,2455.6277,2225.999,right,1,left,left,not_eat,not_eat,approach,pos,approach-pos,1,1,844.7000000001863
sub-039,309,1,FALSE,left,approach,pos,cake15_crop.jpg,4,31,TRUE,308,2,2476.5413,39,DON'T EAT                                    EAT,2475.795,2455.6277,2225.999,right,2,right,right,eat,eat,approach,pos,approach-pos,1,1,746.2999999998137
sub-039,310,1,FALSE,left,approach,pos,cake29_crop.jpg,4,31,TRUE,309,2,2478.4016,39,DON'T EAT                                    EAT,2477.813,2455.6277,2225.999,right,2,right,right,eat,eat,approach,pos,approach-pos,1,1,588.6000000000931
sub-039,311,3,FALSE,left,avoid,neg,fungus40_crop.jpg,4,32,TRUE,310,1,2497.9414,39,DON'T EAT                                    EAT,2496.8125,2492.7922,2225.999,right,1,left,left,not_eat,not_eat,avoid,neg,avoid-neg,1,1,1128.9000000003725
sub-039,312,3,TRUE,left,approach,neg,insect34_crop.jpg,4,32,TRUE,311,2,2499.806,39,DON'T EAT                                    EAT,2498.8308,2492.7922,2225.999,right,2,right,right,eat,eat,avoid,neg,avoid-neg,1,1,975.1999999997206
sub-039,313,3,FALSE,left,avoid,neg,fungus12_crop.jpg,4,32,TRUE,312,1,2501.5793,39,DON'T EAT                                    EAT,2500.849,2492.7922,2225.999,right,1,left,left,not_eat,not_eat,avoid,neg,avoid-neg,1,1,730.2999999998137
sub-039,314,3,FALSE,left,avoid,neg,fungus8_crop.jpg,4,32,TRUE,313,1,2503.4585,39,DON'T EAT                                    EAT,2502.8672,2492.7922,2225.999,right,1,left,left,not_eat,not_eat,avoid,neg,avoid-neg,1,1,591.2999999998137
sub-039,315,3,FALSE,left,avoid,neg,fungus33_crop.jpg,4,32,TRUE,314,1,2505.5427,39,DON'T EAT                                    EAT,2504.8855,2492.7922,2225.999,right,1,left,left,not_eat,not_eat,avoid,neg,avoid-neg,1,1,657.2000000001863
sub-039,316,3,FALSE,left,avoid,neg,fungus25_crop.jpg,4,32,TRUE,315,1,2507.632,39,DON'T EAT                                    EAT,2506.9043,2492.7922,2225.999,right,1,left,left,not_eat,not_eat,avoid,neg,avoid-neg,1,1,727.6999999997206
sub-039,317,3,TRUE,left,approach,pos,cake34_crop.jpg,4,32,TRUE,316,2,2509.9365,39,DON'T EAT                                    EAT,2508.9224,2492.7922,2225.999,right,2,right,right,eat,eat,avoid,neg,avoid-neg,1,1,1014.1000000000931
sub-039,318,3,FALSE,left,avoid,neg,fungus24_crop.jpg,4,32,TRUE,317,1,2511.721,39,DON'T EAT                                    EAT,2510.941,2492.7922,2225.999,right,1,left,left,not_eat,not_eat,avoid,neg,avoid-neg,1,1,780
sub-039,319,3,FALSE,left,avoid,neg,fungus16_crop.jpg,4,32,TRUE,318,1,2513.6592,39,DON'T EAT                                    EAT,2512.9592,2492.7922,2225.999,right,1,left,left,not_eat,not_eat,avoid,neg,avoid-neg,1,1,700.0000000004657
sub-039,320,3,FALSE,left,avoid,neg,fungus18_crop.jpg,4,32,TRUE,319,1,2515.5999,39,DON'T EAT                                    EAT,2514.9773,2492.7922,2225.999,right,1,left,left,not_eat,not_eat,avoid,neg,avoid-neg,1,1,622.6000000005588
